sep=;
ACCELEROMETER X (m/s²);ACCELEROMETER Y (m/s²);ACCELEROMETER Z (m/s²);GRAVITY X (m/s²);GRAVITY Y (m/s²);GRAVITY Z (m/s²);LINEAR ACCELERATION X (m/s²);LINEAR ACCELERATION Y (m/s²);LINEAR ACCELERATION Z (m/s²);GYROSCOPE X (rad/s);GYROSCOPE Y (rad/s);GYROSCOPE Z (rad/s);LIGHT (lux);MAGNETIC FIELD X (μT);MAGNETIC FIELD Y (μT);MAGNETIC FIELD Z (μT);ORIENTATION Z (azimuth °);ORIENTATION X (pitch °);ORIENTATION Y (roll °);PROXIMITY (i);ATMOSPHERIC PRESSURE (hPa);SOUND LEVEL (dB);LOCATION Latitude : ;LOCATION Longitude : ;LOCATION Altitude ( m);LOCATION Altitude-google ( m);LOCATION Altitude-atmospheric pressure ( m);LOCATION Speed ( Kmh);LOCATION Accuracy ( m);LOCATION ORIENTATION (°);Satellites in range;Time since start in ms ;YYYY-MO-DD HH-MI-SS_SSS
-0.7398;8.8795;4.2563;1.071;9.0916;3.5166;-1.8108;-0.2121;0.7396;3.236;0.6487;1.7335;0.0;-7.8;-33.48;-39.6;82.76;-41.13;2.32;8.0;997.46;40.628;44.23534;-76.49352;264.52;NaN;;0.0;51.612904;;7 / 20;26;2020-11-11 01:25:03:737
8.3031;8.1756;-4.5592;3.9412;8.3134;-3.3949;4.3619;-0.1378;-1.1643;0.478;-0.421;1.016;0.0;-14.88;-36.78;-19.86;224.4;-68.1;-151.02;0.0;997.53;51.882;44.23534;-76.49352;264.52;NaN;;0.0;51.612904;;7 / 20;525;2020-11-11 01:25:04:236
-3.4381;1.1965;5.1661;3.9777;7.1299;-5.4325;-7.4158;-5.9334;10.5986;1.1683;0.6218;0.0418;0.0;-25.14;-35.4;18.9;256.5;-46.64;-143.79;0.0;997.5;51.03;44.235344;-76.493484;270.97;NaN;;0.0;61.290325;;7 / 20;1025;2020-11-11 01:25:04:736
12.0357;18.0637;-2.8282;6.2555;4.2503;-6.2429;5.7801;13.8134;3.4147;-3.2158;-2.1004;-1.277;0.0;-25.74;-30.84;27.42;176.35;-25.68;-134.94;0.0;997.63;56.519;44.235344;-76.493484;270.97;NaN;;0.0;61.290325;;7 / 20;1525;2020-11-11 01:25:05:236
0.8787;10.1604;-4.1186;-0.7175;7.7484;-5.9681;1.5962;2.412;1.8495;-1.7311;-0.5009;-0.2248;0.0;-20.94;-34.92;24.48;259.01;-52.2;173.14;0.0;997.59;64.289;44.235336;-76.493484;270.97;NaN;;4.28;74.19355;308.2;7 / 20;2025;2020-11-11 01:25:05:736
-3.5314;10.2538;-5.7898;-5.7074;6.43;-4.7172;-6.7377;3.1247;-1.4198;-0.6346;0.9766;-0.0208;0.0;-0.66;-42.12;24.24;220.77;-40.97;129.57;0.0;998.79;54.949;44.235336;-76.493484;270.97;NaN;;4.28;74.19355;308.2;7 / 20;2525;2020-11-11 01:25:06:236
-2.1715;0.4711;-1.0756;-5.7329;6.3057;-4.852;3.5614;-5.8346;3.7764;0.5089;-0.9705;-0.4053;0.0;18.3;-41.7;27.78;230.19;-41.35;122.72;0.0;997.58;52.903;44.235306;-76.4935;277.42;NaN;;9.11;80.64516;197.1;7 / 20;3025;2020-11-11 01:25:06:736
-6.3422;10.4573;-7.0826;-6.8179;5.9285;-3.8131;0.4756;4.5288;-3.2695;0.3627;-1.6381;0.9151;0.0;21.84;-42.18;24.66;186.26;-34.83;135.73;0.0;996.71;51.837;44.235306;-76.4935;277.42;NaN;;9.11;80.64516;197.1;7 / 20;3527;2020-11-11 01:25:07:238
-1.8866;3.945;-3.6877;-4.6399;2.4185;-8.2941;3.4931;-4.7463;10.3836;-0.5758;0.7862;-0.6386;0.0;20.58;-44.1;22.14;191.33;-30.89;127.88;0.0;997.52;54.301;44.23529;-76.49348;280.65;NaN;;11.45;96.77419;180.4;7 / 20;4025;2020-11-11 01:25:07:736
-1.2019;14.185;-7.4873;-2.4495;-3.9469;-8.6366;1.7671;6.635;8.0351;-0.1222;1.2184;0.0621;0.0;18.36;-47.1;19.38;168.99;13.38;158.98;0.0;998.0;64.588;44.23529;-76.49348;280.65;NaN;;11.45;96.77419;180.4;7 / 20;4525;2020-11-11 01:25:08:236
-1.9896;-0.1275;-0.0437;0.8117;-7.03;-6.7889;-2.8012;6.9025;6.7453;-0.9521;1.5947;0.265;0.0;18.12;-47.76;19.32;156.12;45.8;-173.18;0.0;997.46;70.97;44.23528;-76.493454;280.65;NaN;;8.24;103.22581;158.4;7 / 20;5025;2020-11-11 01:25:08:736
-1.0822;1.1726;-0.8601;3.6309;-6.9054;-5.9416;-4.7131;8.0779;5.0814;0.3617;-0.4477;1.1779;0.0;18.24;-47.88;19.26;144.85;46.74;-144.35;0.0;997.03;72.279;44.23528;-76.493454;280.65;NaN;;8.24;103.22581;158.4;7 / 20;5525;2020-11-11 01:25:09:236
-5.4731;7.759;2.6713;2.5607;-7.7972;-5.3682;-16.0951;25.9997;1.5321;-0.3228;-1.0059;-0.8884;0.0;19.14;-46.62;21.36;137.11;55.84;-141.24;0.0;997.0;69.85;44.235256;-76.49347;280.65;NaN;;11.12;112.90322;183.6;7 / 20;6025;2020-11-11 01:25:09:736
1.9369;3.2699;0.2269;4.9431;-7.3488;-4.2108;-6.303;8.2652;7.6147;-0.4189;0.2967;-0.4661;0.0;18.96;-45.72;24.12;138.54;43.53;-131.72;0.0;996.9;70.648;44.235226;-76.49346;280.65;NaN;;11.7;125.80645;173.6;7 / 20;6525;2020-11-11 01:25:10:236
2.2889;11.4748;-7.3771;6.6491;-6.9379;-1.9558;-17.9737;26.5506;-4.1452;0.2591;1.2213;0.0671;0.0;18.36;-45.78;24.48;131.75;45.03;-106.39;0.0;997.34;66.239;44.235226;-76.49346;280.65;NaN;;11.7;125.80645;173.6;7 / 20;7025;2020-11-11 01:25:10:736
-1.9273;2.5708;1.6682;5.5479;-7.3931;-3.2761;-7.2645;6.1356;5.0042;0.0751;1.0722;-0.0032;0.0;17.7;-47.52;24.24;134.25;48.93;-120.56;0.0;997.69;67.747;44.235226;-76.49346;280.65;NaN;;11.7;125.80645;173.6;7 / 20;7525;2020-11-11 01:25:11:236
-6.9599;7.941;-6.678;4.3305;-8.5614;-2.0297;-14.4747;26.3305;-3.3986;-0.5049;-0.4178;-0.633;0.0;16.38;-49.38;24.24;125.23;60.81;-115.11;0.0;998.04;70.691;44.2352;-76.493484;277.42;NaN;;8.39;138.70969;194.9;6 / 20;8025;2020-11-11 01:25:11:736
-3.7541;4.2754;-1.4036;4.6978;-8.5863;-0.6134;-14.5021;23.6117;2.8681;0.0866;-2.2512;-0.1111;0.0;15.84;-49.62;23.94;115.26;60.92;-94.02;0.0;998.26;66.125;44.2352;-76.493484;277.42;NaN;;8.39;138.70969;194.9;6 / 20;8527;2020-11-11 01:25:12:238
2.32;8.9202;-4.9039;6.9319;-6.8463;1.1166;-7.789;-0.2578;1.6217;-0.5609;-0.3257;0.5979;0.0;15.84;-49.02;23.64;131.17;47.63;-83.45;0.0;996.65;66.006;44.235165;-76.49347;277.42;NaN;;12.46;141.93549;182.2;6 / 20;9025;2020-11-11 01:25:12:736
0.4932;14.6088;-8.5886;6.7268;-6.9302;-1.7008;-18.128;25.578;-2.3699;-0.5188;0.991;-0.8352;0.0;16.02;-48.6;23.46;136.56;44.97;-104.19;0.0;998.41;70.536;44.235146;-76.49346;280.65;NaN;;10.26;148.3871;173.4;6 / 20;9525;2020-11-11 01:25:13:236
-3.0718;-0.41;0.6985;5.7496;-7.9086;-0.7529;-6.7025;7.1658;4.5136;0.71;0.5103;-1.0408;0.0;17.34;-48.84;23.94;124.53;53.75;-97.46;0.0;998.16;71.191;44.235146;-76.49346;280.65;NaN;;10.26;148.3871;173.4;6 / 20;10025;2020-11-11 01:25:13:736
-7.7907;15.4851;-8.8065;6.603;-7.2459;0.2583;-16.685;25.3144;-0.1009;-0.037;-2.6381;0.6021;0.0;18.78;-47.88;24.96;125.98;47.64;-87.76;0.0;997.25;70.337;44.235146;-76.49346;280.65;NaN;;10.26;148.3871;173.4;6 / 20;10524;2020-11-11 01:25:14:235
-0.0718;2.2619;-3.5967;6.1316;-7.4331;1.8228;-8.4205;3.719;1.1382;-0.6948;-1.1484;-0.6839;0.0;19.14;-46.14;25.68;118.49;49.28;-73.44;0.0;997.45;66.849;44.23511;-76.49345;277.42;NaN;;11.02;154.8387;173.7;3 / 20;11026;2020-11-11 01:25:14:737
-1.2689;17.5489;-7.7458;5.0355;-8.2099;1.8471;-3.2303;15.5379;-6.6744;-0.2354;0.7907;0.0192;0.0;18.9;-45.66;26.04;123.1;47.91;-91.64;0.0;998.55;67.938;44.23511;-76.49345;277.42;NaN;;11.02;154.8387;173.7;3 / 20;11524;2020-11-11 01:25:15:235
-2.9281;-1.8872;0.155;6.6516;-7.205;0.1235;-17.8301;20.7508;-0.4161;-0.5768;1.5353;-0.8919;0.0;17.82;-46.56;26.16;120.37;56.3;-105.73;0.0;997.47;70.489;44.23506;-76.4934;277.42;NaN;;15.01;164.51613;162.9;3 / 20;12024;2020-11-11 01:25:15:735
-1.2115;-1.5281;3.4878;4.982;-8.4379;0.3895;-8.7863;13.4771;1.6977;-0.1641;0.1419;-0.4714;0.0;16.56;-47.34;26.4;107.22;59.36;-85.53;0.0;997.19;69.578;44.23506;-76.4934;277.42;NaN;;15.01;164.51613;162.9;3 / 20;12525;2020-11-11 01:25:16:236
-8.2025;19.6127;-4.7028;5.137;-8.1936;1.6268;-12.0587;24.0043;-1.5796;-0.5236;-0.8314;0.1308;0.0;16.44;-47.52;26.64;108.06;56.67;-72.43;0.0;997.21;66.674;44.235023;-76.493385;277.42;NaN;;15.26;177.41936;156.8;3 / 20;13025;2020-11-11 01:25:16:736
-2.2577;-3.2328;3.7822;5.0774;-8.0595;2.3312;-2.791;13.6996;-6.8664;-0.3316;0.5198;0.0541;0.0;16.08;-47.94;26.1;110.92;55.27;-65.34;0.0;997.29;67.144;44.235023;-76.493385;277.42;NaN;;15.26;177.41936;156.8;3 / 20;13525;2020-11-11 01:25:17:236
-9.9144;19.6127;-4.2383;6.5923;-7.2158;-0.8026;-15.9177;19.112;5.3294;0.2511;1.2597;-0.0692;0.0;15.36;-48.18;25.5;130.82;47.38;-96.94;0.0;998.18;69.998;44.235;-76.493484;267.74;NaN;;12.06;151.6129;167.8;4 / 20;14025;2020-11-11 01:25:17:736
-3.45;1.1869;3.0089;6.2648;-7.0694;-2.6355;-8.6734;7.1526;5.9581;1.8317;1.2232;-0.2429;0.0;15.24;-47.88;25.38;128.32;55.84;-110.76;0.0;997.43;70.376;44.235;-76.493484;267.74;NaN;;12.06;151.6129;167.8;4 / 20;14524;2020-11-11 01:25:18:235
-9.2249;17.7285;0.2388;4.4963;-8.4531;-2.1208;-15.0045;26.9525;-10.1525;-0.9068;-1.1537;0.1079;0.0;15.78;-47.88;24.84;124.68;54.62;-101.83;0.0;997.07;69.036;44.23497;-76.493454;267.74;NaN;;10.87;145.1613;179.9;4 / 20;15024;2020-11-11 01:25:18:735
-3.0957;0.3035;-2.0069;5.4578;-7.5572;3.045;-7.0452;5.294;-1.9706;-0.6879;0.7942;-0.8173;0.0;16.32;-48.12;23.94;129.4;50.41;-60.84;0.0;997.4;62.291;44.23497;-76.493454;267.74;NaN;;10.87;145.1613;179.9;4 / 20;15524;2020-11-11 01:25:19:235
-4.6807;3.7104;-5.0907;6.8734;-6.2989;3.0414;-20.4366;25.9116;-14.855;-0.1507;5.5386;-0.1603;0.0;17.04;-46.26;25.68;137.61;39.96;-66.13;0.0;997.5;66.423;44.23494;-76.49347;261.29;NaN;;11.56;132.25806;182.4;4 / 20;16024;2020-11-11 01:25:19:735
-2.0566;-2.0668;2.384;8.1337;-4.5975;2.9794;-10.6236;2.1357;-2.8052;-0.572;3.1692;0.9281;0.0;17.22;-44.76;27.18;145.05;27.96;-69.88;0.0;997.62;64.206;44.23494;-76.49347;261.29;NaN;;11.56;132.25806;182.4;4 / 20;16525;2020-11-11 01:25:20:236
-10.7955;10.5387;2.044;8.2332;-5.3078;0.4595;-14.0703;4.8643;-2.7011;-0.1726;-2.3502;0.3148;0.0;18.24;-44.22;27.54;134.36;33.66;-81.35;0.0;997.43;51.603;44.234886;-76.493454;261.29;NaN;;12.49;122.58065;177.4;4 / 21;17025;2020-11-11 01:25:20:736
-4.707;0.1239;-3.568;7.9802;-5.669;0.5912;-12.261;24.573;-1.9014;-0.3611;-1.0693;0.7651;0.0;18.0;-43.56;28.92;135.46;30.93;-81.16;0.0;997.91;49.63;44.234886;-76.493454;261.29;NaN;;12.49;122.58065;177.4;4 / 21;17525;2020-11-11 01:25:21:236
-0.0886;-6.453;2.5851;7.1082;-6.7039;0.8382;-4.8456;8.5468;-2.7853;-0.0216;-0.2541;-0.3502;0.0;16.26;-42.3;29.28;122.98;43.13;-83.27;0.0;998.25;44.58;44.234833;-76.493416;274.19;NaN;;12.82;106.451614;178.6;6 / 21;18025;2020-11-11 01:25:21:736
-12.3541;19.6127;-12.0793;8.2424;-5.2262;0.9591;-13.8209;10.8496;-5.14;-0.3409;3.0914;-0.11;0.0;15.84;-41.16;28.02;133.34;32.2;-83.36;0.0;997.51;49.081;44.234833;-76.493416;274.19;NaN;;12.82;106.451614;178.6;6 / 21;18525;2020-11-11 01:25:22:236
-1.1899;-1.9088;3.89;7.0485;-6.7163;1.1747;-10.623;5.8083;-7.8743;-0.3475;-0.1462;-0.5473;0.0;14.58;-40.8;26.88;124.65;43.23;-80.54;0.0;997.61;51.509;44.234776;-76.4934;280.65;NaN;;13.36;112.90322;183.5;6 / 21;19025;2020-11-11 01:25:22:736
-6.5649;19.6127;-1.4084;4.6052;-8.5854;1.1194;-11.3496;23.5558;-10.2371;-0.3204;-1.3883;-0.5593;0.0;13.26;-40.68;26.52;97.8;61.1;-76.34;0.0;998.75;55.81;44.234776;-76.4934;280.65;NaN;;13.36;112.90322;183.5;6 / 21;19525;2020-11-11 01:25:23:236
-3.5482;6.3704;1.1534;5.6702;-7.6215;2.4356;-9.2184;13.9919;-1.2822;-0.3569;2.5106;-0.2501;0.0;12.72;-40.68;26.46;116.04;50.88;-72.7;0.0;998.34;64.993;44.23474;-76.49345;290.32;NaN;;13.46;116.12903;200.9;6 / 21;20025;2020-11-11 01:25:23:736
-9.9455;19.6127;-5.0643;6.2613;-7.4146;1.4109;-16.2068;27.0273;-6.4753;0.6053;1.4679;0.0365;0.0;12.78;-41.7;25.62;121.1;49.12;-77.3;0.0;997.65;60.84;44.23474;-76.49345;290.32;NaN;;13.46;116.12903;200.9;6 / 21;20525;2020-11-11 01:25:24:236
-8.9208;16.3997;-5.0524;6.7754;-7.0029;1.1057;-9.6126;4.1269;3.9838;1.5239;1.473;0.0096;0.0;12.78;-42.9;25.08;128.66;45.57;-80.73;0.0;997.87;68.571;44.23472;-76.49346;290.32;NaN;;12.64;129.03226;201.7;6 / 21;21025;2020-11-11 01:25:24:736
-4.6663;0.9164;2.7216;5.419;-8.0905;1.1609;-10.0853;9.0069;1.5607;-0.5342;-0.2312;-0.4573;0.0;12.42;-44.1;24.54;108.42;57.49;-67.06;0.0;997.96;64.425;44.23472;-76.49346;290.32;NaN;;12.64;129.03226;201.7;6 / 21;21525;2020-11-11 01:25:25:236
0.34;10.1221;0.0952;4.8948;-8.4781;-0.5765;-4.5549;18.6002;0.6717;-0.4996;-1.3976;0.168;0.0;11.58;-46.02;23.64;115.93;57.1;-72.93;0.0;999.04;66.903;44.234657;-76.493416;290.32;NaN;;13.0;132.25806;178.4;6 / 21;22026;2020-11-11 01:25:25:737
-2.4924;-1.3892;0.9786;5.7977;-7.4816;2.5657;-5.6301;15.7745;-7.8096;-0.5209;0.0969;1.2168;0.0;10.98;-46.74;22.74;133.27;49.72;-66.13;0.0;998.19;66.875;44.234657;-76.493416;290.32;NaN;;13.0;132.25806;178.4;6 / 21;22525;2020-11-11 01:25:26:236
-5.6312;19.6127;-10.2382;7.3128;-6.5006;0.6597;-12.944;26.1133;-10.8979;0.771;0.7308;-0.8474;0.0;10.62;-46.14;22.44;137.04;47.67;-96.97;0.0;997.9;69.509;44.234592;-76.493355;290.32;NaN;;14.98;103.22581;165.5;6 / 21;23024;2020-11-11 01:25:26:735
-0.9242;-2.3302;2.6977;6.1059;-7.6649;-0.3712;-7.0301;5.3347;3.0689;0.6716;0.4533;-0.4277;0.0;10.26;-45.42;22.32;115.37;62.8;-84.9;0.0;997.64;65.989;44.234592;-76.493355;290.32;NaN;;14.98;103.22581;165.5;6 / 21;23525;2020-11-11 01:25:27:236
-15.1888;13.8235;-6.0627;5.9992;-7.2455;-2.7718;-21.188;21.069;-3.291;-0.6421;-1.5803;1.3244;0.0;11.22;-45.42;22.26;142.12;42.2;-109.86;0.0;997.23;64.295;44.23455;-76.493355;306.45;NaN;;14.65;100.0;167.0;6 / 21;24025;2020-11-11 01:25:27:736
1.6089;-1.6071;2.6378;7.2585;-6.592;-0.1753;-5.6496;4.9848;2.8131;-1.4826;-0.3225;1.8131;0.0;15.0;-46.32;21.42;143.47;37.84;-82.78;0.0;997.1;70.506;44.23455;-76.493355;306.45;NaN;;14.65;100.0;167.0;6 / 21;24525;2020-11-11 01:25:28:236
-2.7845;-1.0133;-2.6103;6.5033;-6.838;-2.668;-25.0153;26.4507;-16.9453;0.1039;-0.3878;-0.1385;0.0;18.3;-47.34;22.98;135.05;44.21;-112.31;0.0;997.27;70.862;44.23457;-76.49343;274.19;NaN;;11.7;77.41935;175.6;6 / 21;25025;2020-11-11 01:25:28:736
-8.4491;9.5714;8.2594;5.1344;-8.2931;-1.0158;-13.5836;17.8645;9.2752;1.1228;0.0969;0.421;0.0;18.84;-47.94;24.12;118.03;56.32;-99.31;0.0;998.31;69.899;44.23457;-76.49343;274.19;NaN;;11.7;77.41935;175.6;6 / 21;25525;2020-11-11 01:25:29:236
-2.2482;7.2179;5.2403;5.5958;-7.805;-1.9845;-7.844;15.023;7.2248;-2.4645;-0.7854;3.6573;0.0;19.74;-48.0;23.22;135.32;41.04;-88.13;0.0;997.67;66.115;44.23457;-76.49343;274.19;NaN;;11.7;77.41935;175.6;6 / 21;26025;2020-11-11 01:25:29:736
-0.5004;5.6665;-9.2279;4.836;-8.3944;1.5221;-5.3364;14.0609;-10.75;-0.5385;-0.3103;-2.7265;0.0;20.34;-47.22;22.86;121.87;51.58;-96.1;0.0;997.94;62.164;44.23457;-76.49343;274.19;NaN;;11.7;77.41935;175.6;6 / 21;26526;2020-11-11 01:25:30:237
-5.1595;12.9903;-7.1593;6.3541;-7.4604;-0.3725;-11.5136;20.4507;-6.7868;-0.0317;0.2322;-0.5598;0.0;20.16;-46.74;22.56;128.06;51.56;-116.05;0.0;997.26;57.69;44.234493;-76.49327;267.74;NaN;;13.39;80.64516;156.1;6 / 21;27025;2020-11-11 01:25:30:736
2.1261;-3.8744;0.2843;8.118;-5.2738;-1.567;-5.9919;1.3994;1.8513;0.9324;0.2162;0.3244;0.0;19.86;-46.74;22.38;139.4;34.94;-101.69;0.0;997.92;61.115;44.234493;-76.49327;267.74;NaN;;13.39;80.64516;156.1;6 / 21;27525;2020-11-11 01:25:31:236
-2.4804;2.5564;1.5724;8.4639;-3.4275;-3.5756;-15.692;21.2278;-2.6882;0.0357;-0.1617;1.3731;0.0;20.52;-46.86;23.1;144.0;20.46;-112.9;0.0;997.82;54.012;44.234444;-76.493225;274.19;NaN;;14.0;70.96774;164.5;6 / 21;28025;2020-11-11 01:25:31:736
-14.4203;5.3696;5.9705;8.1036;-3.3269;-4.4083;-22.5239;8.6965;10.3789;-1.184;0.7774;1.0338;0.0;20.76;-46.74;23.88;141.9;24.92;-118.61;0.0;998.12;56.336;44.234444;-76.493225;274.19;NaN;;14.0;70.96774;164.5;6 / 21;28525;2020-11-11 01:25:32:236
-2.8515;7.8476;-2.3948;6.5928;-5.6239;-4.5909;-9.4443;13.4715;2.1961;1.8861;1.2549;-1.2304;0.0;20.94;-45.48;22.14;144.89;20.56;-138.76;0.0;997.43;59.784;44.2344;-76.49325;274.19;NaN;;15.23;64.51613;170.3;6 / 21;29025;2020-11-11 01:25:32:736
0.3136;-1.2791;4.127;6.3242;-2.0461;-7.2103;-6.0105;0.767;11.3373;-0.1651;-1.7316;0.6818;0.0;21.66;-43.2;21.06;144.05;12.7;-136.21;0.0;997.77;56.304;44.2344;-76.49325;274.19;NaN;;15.23;64.51613;170.3;6 / 21;29525;2020-11-11 01:25:33:236
-6.1148;18.5281;-17.7823;6.1471;-1.0795;-7.5643;-12.2619;19.6076;-10.2181;0.3209;-0.3342;-0.4421;0.0;21.48;-42.84;21.96;144.15;11.59;-133.34;0.0;997.75;58.096;44.234356;-76.493256;277.42;NaN;;15.98;70.96774;176.5;6 / 21;30025;2020-11-11 01:25:33:736
-1.0415;-3.5536;4.6082;7.0578;-4.2391;-5.328;-8.0992;0.6855;9.9362;-1.0935;0.3377;-2.2999;0.0;20.7;-44.52;21.54;141.25;30.71;-130.51;0.0;998.04;60.8;44.234356;-76.493256;277.42;NaN;;15.98;70.96774;176.5;6 / 21;30525;2020-11-11 01:25:34:236
-2.5618;-6.7858;5.0775;6.4735;-4.7809;-5.6042;-17.8531;19.203;-4.8902;0.5145;0.8176;-0.2751;0.0;20.88;-45.3;20.46;142.73;29.18;-130.88;0.0;997.53;61.186;44.234333;-76.493256;280.65;NaN;;14.26;70.96774;177.0;6 / 21;31025;2020-11-11 01:25:34:736
-10.0365;15.7006;9.9186;5.9812;-3.8963;-6.7242;-16.0177;19.5968;16.6428;1.1569;0.3342;0.0559;0.0;21.06;-45.42;21.42;142.58;26.58;-127.37;0.0;997.66;58.427;44.234333;-76.493256;280.65;NaN;;14.26;70.96774;177.0;6 / 21;31525;2020-11-11 01:25:35:236
-2.9808;0.0353;4.6585;5.8464;-2.9334;-7.3065;-8.8272;2.9688;11.965;-0.5776;-1.808;1.1401;0.0;21.3;-45.48;23.58;143.62;14.02;-127.92;0.0;997.87;56.056;44.234303;-76.493256;283.87;NaN;;11.34;74.19355;171.2;6 / 21;32025;2020-11-11 01:25:35:736
-0.9936;1.0457;7.3568;5.8578;-3.2362;-7.1682;-6.8514;4.2819;14.525;-0.0764;-0.4269;-1.1489;0.0;22.2;-44.88;24.48;143.24;15.61;-134.03;0.0;997.21;53.699;44.234303;-76.493256;283.87;NaN;;11.34;74.19355;171.2;6 / 21;32525;2020-11-11 01:25:36:236
-2.5355;12.5187;-4.4155;4.9764;-4.4319;-7.1947;-7.5119;16.9506;2.7792;-0.2365;-0.2562;-0.3151;0.0;22.2;-43.68;24.84;144.75;12.56;-148.33;0.0;997.37;58.199;44.234276;-76.4932;283.87;NaN;;12.6;80.64516;161.6;6 / 21;33025;2020-11-11 01:25:36:736
-19.6133;19.6127;-19.6133;4.148;-2.8741;-8.4085;-3.9972;-1.7066;10.6489;-0.2096;0.0447;0.1563;0.0;24.0;-40.74;25.8;142.42;17.04;-153.74;0.0;997.65;57.8;44.234276;-76.4932;283.87;NaN;;12.6;80.64516;161.6;6 / 21;33529;2020-11-11 01:25:37:240
-3.3112;1.2851;1.1534;2.6637;-0.663;-9.4146;-5.9749;1.9481;10.568;0.3135;1.5595;0.8035;0.0;26.64;-38.76;26.7;138.66;8.46;-155.82;0.0;998.02;55.673;44.23425;-76.49321;287.1;NaN;;12.13;77.41935;173.0;6 / 21;34025;2020-11-11 01:25:37:736
-14.4346;11.3407;-1.3414;5.8156;-3.7732;-6.9363;-20.2502;15.1139;5.5949;-0.4831;-0.5071;0.9974;0.0;27.66;-40.56;23.88;139.04;16.64;-151.64;0.0;997.12;53.094;44.23425;-76.49321;287.1;NaN;;12.13;77.41935;173.0;6 / 21;34525;2020-11-11 01:25:38:236
-6.4045;10.5578;-6.9127;4.4502;-6.1994;-6.159;-10.8547;16.7572;-0.7536;-0.6218;0.9864;0.6338;0.0;26.7;-42.18;23.1;141.86;10.81;-156.55;0.0;997.66;57.84;44.234257;-76.49319;280.65;NaN;;5.44;67.741936;173.0;6 / 21;35025;2020-11-11 01:25:38:736
0.2729;-3.7212;2.8437;6.2321;-5.2899;-5.4174;-5.9592;1.5687;8.2611;0.0831;-1.2227;0.2501;0.0;26.76;-41.1;24.36;131.63;35.37;-134.54;0.0;997.89;56.255;44.234257;-76.49319;280.65;NaN;;5.44;67.741936;173.0;6 / 21;35525;2020-11-11 01:25:39:236
-6.0142;19.6127;-8.5287;5.4904;-7.4563;-3.2293;-11.5046;27.069;-5.2994;-0.5667;-0.1771;-0.4959;0.0;27.78;-40.26;24.0;100.0;57.12;-107.94;0.0;997.74;55.561;44.23424;-76.49317;290.32;NaN;;2.48;70.96774;173.0;6 / 21;36024;2020-11-11 01:25:39:735
-7.1539;14.3574;-2.1626;7.5264;-5.1266;-3.6389;-7.6605;2.8276;6.5568;-0.3422;0.4748;-1.8834;0.0;27.72;-40.32;24.0;127.98;31.52;-115.8;0.0;997.13;53.99;44.23424;-76.49317;290.32;NaN;;2.48;70.96774;173.0;6 / 21;36525;2020-11-11 01:25:40:236
-3.0167;-5.3085;2.712;8.1536;-3.1008;-4.4803;-11.1703;-2.2077;7.1923;0.6362;-0.1169;-0.0895;0.0;27.6;-41.58;21.3;136.45;21.72;-125.44;0.0;997.36;57.617;44.234215;-76.49318;287.1;NaN;;3.1;74.19355;173.0;6 / 21;37025;2020-11-11 01:25:40:736
-8.4539;14.968;10.6153;7.1129;-1.0268;-6.6725;-15.5668;15.9948;17.2878;1.31;0.7204;0.2482;0.0;27.9;-40.5;22.2;138.27;6.41;-128.34;0.0;997.49;58.3;44.234215;-76.49318;287.1;NaN;;3.1;74.19355;173.0;6 / 21;37525;2020-11-11 01:25:41:236
0.261;3.1526;1.4766;7.3518;1.4497;-6.3261;-7.0908;1.7028;7.8027;1.0322;0.3044;-0.2389;0.0;27.9;-39.48;24.42;137.25;-0.21;-127.45;0.0;998.09;56.195;44.234188;-76.49314;280.65;NaN;;3.1;80.64516;173.0;6 / 21;38025;2020-11-11 01:25:41:736
-8.7676;9.4852;0.3849;6.2898;1.8623;-7.2897;-15.0574;7.623;7.6746;-0.551;-0.6136;-1.0914;0.0;26.94;-41.88;22.38;140.25;3.43;-136.97;0.0;997.12;53.953;44.234188;-76.49314;280.65;NaN;;3.1;80.64516;173.0;6 / 21;38525;2020-11-11 01:25:42:236
-5.4013;9.6432;-4.4179;6.2107;-0.4604;-7.5753;-11.612;10.1036;3.1574;-0.7161;0.3553;-0.2003;0.0;25.62;-44.28;20.1;142.81;-9.24;-153.57;0.0;997.81;57.097;44.234158;-76.49317;274.19;NaN;;6.37;77.41935;173.0;6 / 21;39025;2020-11-11 01:25:42:736
-12.2655;16.0956;-10.559;5.1939;2.4684;-7.9436;-5.0503;14.4529;-2.1319;-0.0016;-1.1063;0.2059;0.0;25.14;-44.16;19.8;142.69;-14.58;-146.82;0.0;997.44;58.297;44.234158;-76.49317;274.19;NaN;;6.37;77.41935;173.0;6 / 21;39525;2020-11-11 01:25:43:236
-0.2801;-0.3502;-1.1785;5.5456;1.926;-7.8554;-5.8257;-2.2761;6.6768;-1.8642;0.2378;-0.6509;0.0;24.54;-42.96;21.3;141.56;-14.35;-144.61;0.0;998.32;60.891;44.23411;-76.49316;274.19;NaN;;10.48;77.41935;180.0;6 / 21;40024;2020-11-11 01:25:43:735
-8.6072;15.205;3.6984;6.2853;2.2168;-7.1938;-14.8924;12.9882;10.8922;-2.7122;-2.7042;2.3108;0.0;23.64;-43.08;21.42;143.43;-2.92;-137.47;0.0;998.2;55.935;44.23411;-76.49316;274.19;NaN;;10.48;77.41935;180.0;6 / 21;40525;2020-11-11 01:25:44:236
-0.1628;-6.1681;1.0983;6.9719;-2.7921;-6.3061;-7.1347;-3.376;7.4045;-2.1028;0.4503;1.1875;0.0;24.24;-42.78;21.0;143.65;9.38;-145.59;0.0;997.82;56.389;44.234074;-76.49328;267.74;NaN;;13.28;83.87097;203.6;6 / 21;41025;2020-11-11 01:25:44:736
1.2282;-0.6255;4.388;6.3288;-3.0376;-6.8476;-5.1006;2.4121;11.2355;2.1023;-2.7036;0.5739;0.0;24.96;-40.68;24.66;136.45;20.75;-128.71;0.0;997.37;54.457;44.234074;-76.49328;267.74;NaN;;13.28;83.87097;203.6;6 / 21;41525;2020-11-11 01:25:45:236
0.3424;-3.9654;1.4718;4.8345;-4.0275;-7.5218;-6.4482;18.0474;-7.6245;0.1875;-1.1769;-0.4977;0.0;27.06;-37.98;27.96;135.36;24.25;-147.27;0.0;997.79;54.618;44.23403;-76.49329;267.74;NaN;;12.02;87.09678;197.6;6 / 21;42025;2020-11-11 01:25:45:736
-10.7691;19.6127;-6.3452;4.1651;-7.2401;-5.1384;-14.9342;26.8528;-1.2069;-0.5611;-0.0855;-1.8219;0.0;30.18;-36.84;26.46;113.98;54.17;-131.68;0.0;997.98;55.347;44.23403;-76.49329;267.74;NaN;;12.02;87.09678;197.6;6 / 21;42525;2020-11-11 01:25:46:236
-1.6783;-5.8017;6.4805;3.2767;-7.5149;-5.3814;-4.9551;1.7132;11.8619;0.1425;1.1872;-0.1561;0.0;32.58;-37.08;24.18;114.35;56.9;-141.02;0.0;997.45;58.426;44.23398;-76.49327;267.74;NaN;;12.2;87.09678;186.4;6 / 21;43025;2020-11-11 01:25:46:736
-11.3749;16.6319;11.8651;2.9729;-6.7246;-6.4893;-14.3477;23.3566;18.3544;0.9942;0.939;-0.784;0.0;33.48;-36.72;24.24;125.77;40.88;-146.93;0.0;997.61;58.115;44.23398;-76.49327;267.74;NaN;;12.2;87.09678;186.4;6 / 21;43525;2020-11-11 01:25:47:236
-2.1261;3.1957;1.7304;4.3429;-5.1971;-7.0922;-6.469;8.3928;8.8226;0.931;0.6099;-0.2333;0.0;33.0;-37.44;22.5;130.78;29.82;-151.87;0.0;998.5;59.679;44.233955;-76.49335;261.29;NaN;;8.64;93.548386;209.4;6 / 21;44025;2020-11-11 01:25:47:736
-18.6221;19.6127;-9.247;5.0267;-4.3421;-7.2144;-23.6488;23.9548;-2.0326;-1.2605;-1.0354;-0.955;0.0;32.28;-38.76;20.76;127.8;36.96;-142.89;0.0;997.95;61.905;44.233955;-76.49335;261.29;NaN;;8.64;93.548386;209.4;6 / 21;44525;2020-11-11 01:25:48:236
-0.2753;-2.8832;4.0073;4.5015;-3.7992;-7.8405;-8.4303;17.4455;0.7985;-0.4186;0.2349;-0.1478;0.0;31.68;-39.6;21.3;134.66;22.79;-150.14;0.0;997.73;55.359;44.233917;-76.49339;261.29;NaN;;10.37;93.548386;216.3;6 / 21;45025;2020-11-11 01:25:48:736
-18.397;19.6127;-4.8967;6.5133;-2.7905;-6.7793;-24.9104;22.4032;1.8826;0.7481;0.183;0.1832;0.0;29.82;-39.66;21.6;136.03;12.83;-123.14;0.0;997.52;54.381;44.233917;-76.49339;261.29;NaN;;10.37;93.548386;216.3;6 / 21;45525;2020-11-11 01:25:49:236
-0.6512;5.1757;3.6146;6.5339;-1.7201;-7.1077;-7.1851;6.8958;10.7224;-2.7987;-0.9784;3.4903;0.0;28.98;-38.7;23.4;136.21;6.3;-132.4;0.0;997.9;57.864;44.233864;-76.49339;261.29;NaN;;9.65;83.87097;205.5;6 / 21;46026;2020-11-11 01:25:49:737
-10.0796;5.9658;-0.9535;8.2298;-2.9487;-4.4436;-18.3094;8.9145;3.4901;-0.2796;0.9824;-1.9564;0.0;28.68;-40.62;20.58;136.27;18.81;-119.16;0.0;997.59;56.623;44.233864;-76.49339;261.29;NaN;;9.65;83.87097;205.5;6 / 21;46526;2020-11-11 01:25:50:237
-6.1268;12.5498;-5.4498;8.9426;-2.5706;-3.097;-15.0694;15.1204;-2.3528;-0.3867;1.2221;-0.4906;0.0;25.86;-42.9;19.38;144.05;14.67;-110.59;0.0;997.12;61.277;44.233814;-76.49345;264.52;NaN;;11.3;77.41935;201.6;6 / 21;47026;2020-11-11 01:25:50:737
-8.7197;3.4758;12.466;9.4547;-2.3812;-1.0534;-9.311;1.533;1.9483;1.3188;0.984;0.3459;0.0;19.56;-46.32;17.1;154.6;14.05;-96.36;0.0;998.51;66.06;44.233814;-76.49345;264.52;NaN;;11.3;77.41935;201.6;6 / 21;47535;2020-11-11 01:25:51:246
-6.0334;15.1834;-6.9031;8.4012;-4.0356;3.0502;-14.4346;19.2191;-9.9533;-2.8035;-0.3007;0.1097;0.0;14.52;-48.9;14.46;166.75;18.97;-74.63;0.0;997.19;62.901;44.233814;-76.49345;264.52;NaN;;11.3;77.41935;201.6;6 / 21;48031;2020-11-11 01:25:51:742
-0.0311;-3.7571;3.9834;8.0228;-3.7392;4.2218;-8.0539;-0.0179;-0.2384;-1.3124;1.2165;1.1079;0.0;12.12;-52.5;10.56;175.67;22.17;-58.8;0.0;997.75;59.435;44.233814;-76.49345;264.52;NaN;;11.3;77.41935;201.6;6 / 21;48525;2020-11-11 01:25:52:236
-19.6133;19.6127;-18.9028;8.9612;-3.364;2.1333;-28.5745;22.9767;-21.0362;3.6099;-1.7239;-0.9987;0.0;12.0;-53.94;6.96;178.19;26.07;-65.27;0.0;997.51;58.218;44.233814;-76.49345;264.52;NaN;;11.3;77.41935;201.6;6 / 21;49025;2020-11-11 01:25:52:736
-2.1931;3.5213;1.4072;8.7437;-3.4653;2.7765;-10.9368;6.9866;-1.3693;-0.3736;-0.4906;-0.3292;0.0;13.14;-52.92;6.66;177.67;12.25;-69.42;0.0;997.49;54.467;44.233814;-76.49345;264.52;NaN;;11.3;77.41935;201.6;6 / 21;49525;2020-11-11 01:25:53:236
-16.5655;15.6024;-4.7411;9.3862;-1.3784;2.4839;-25.9517;16.9808;-7.225;0.3726;0.6093;-2.4264;0.0;13.68;-52.74;6.24;177.0;13.86;-76.29;0.0;997.44;56.626;44.233814;-76.49345;264.52;NaN;;11.3;77.41935;201.6;6 / 21;50024;2020-11-11 01:25:53:735
-0.0048;-5.1098;6.356;8.4559;-4.9264;0.6318;-13.1246;18.5847;-3.3354;-2.1135;0.6962;1.661;0.0;13.38;-52.86;4.02;175.59;30.16;-85.73;0.0;997.77;56.465;44.233814;-76.49345;264.52;NaN;;11.3;77.41935;201.6;6 / 21;50525;2020-11-11 01:25:54:236
-19.6133;19.6127;0.6219;8.859;-4.2003;0.2143;-28.4723;23.813;0.4076;0.3872;-2.457;0.653;0.0;11.88;-52.92;2.46;180.03;23.74;-80.44;0.0;997.12;55.534;44.233814;-76.49345;264.52;NaN;;11.3;77.41935;201.6;6 / 21;51024;2020-11-11 01:25:54:735
-1.4916;2.8174;2.827;8.3595;-4.8123;-1.7695;-9.851;7.6297;4.5965;-0.8197;0.3398;-0.6035;0.0;11.64;-52.68;3.9;175.52;18.68;-88.22;0.0;997.17;53.651;44.233814;-76.49345;264.52;NaN;;11.3;77.41935;201.6;6 / 21;51524;2020-11-11 01:25:55:235
-2.162;3.3393;-3.0676;7.6492;-6.0042;1.2687;-9.8111;9.3435;-4.3363;-0.0373;-0.9678;0.2493;0.0;10.68;-53.94;-0.78;183.16;27.07;-82.73;0.0;997.26;53.331;44.233814;-76.49345;264.52;NaN;;11.3;77.41935;201.6;6 / 21;52025;2020-11-11 01:25:55:736
-6.2297;12.8778;-10.1951;8.8582;-4.1312;0.7976;-15.0879;17.009;-10.9927;1.5886;1.4189;-0.8256;0.0;9.0;-56.7;-4.62;186.76;25.16;-85.58;0.0;997.36;55.843;44.233814;-76.49345;264.52;NaN;;11.3;77.41935;201.6;6 / 21;52525;2020-11-11 01:25:56:236
1.3647;-4.0683;0.6578;7.2927;-6.4567;-1.1389;-5.9281;2.3883;1.7967;0.7119;0.927;-0.27;0.0;8.94;-57.36;-2.94;183.3;21.97;-90.92;0.0;997.52;54.93;44.233814;-76.49345;264.52;NaN;;11.3;77.41935;201.6;6 / 21;53025;2020-11-11 01:25:56:736
1.0654;6.5811;-2.9598;8.4034;-4.9012;1.2374;-25.17;16.9267;7.8097;-1.7012;2.0381;-0.8067;0.0;8.88;-56.22;-5.4;188.02;29.99;-81.62;0.0;997.86;57.169;44.233814;-76.49345;264.52;NaN;;11.3;77.41935;201.6;6 / 21;53525;2020-11-11 01:25:57:236
0.5339;-1.09;1.9124;8.9487;-4.0092;0.1287;-8.4148;2.9192;1.7836;-0.9361;0.0341;1.1113;0.0;10.8;-54.9;-12.12;196.58;26.59;-81.98;0.0;998.23;55.759;44.233814;-76.49345;264.52;NaN;;11.3;77.41935;201.6;6 / 21;54024;2020-11-11 01:25:57:735
-7.9272;11.6831;-8.7825;9.4488;-1.8391;-1.8729;-17.376;13.5222;-6.9096;1.579;1.1516;-0.9159;0.0;13.56;-53.4;-17.4;195.62;10.91;-102.27;0.0;998.14;58.161;44.233746;-76.4933;283.87;NaN;;6.34;48.387096;105.6;6 / 21;54524;2020-11-11 01:25:58:235
0.6009;-2.7132;-0.1706;8.7046;-3.9699;-2.1542;-8.1036;1.2566;1.9836;0.7033;0.5531;-0.3108;0.0;15.72;-54.48;-15.84;196.21;24.42;-103.01;0.0;998.16;55.203;44.23376;-76.49325;290.32;NaN;;11.09;48.387096;80.3;7 / 21;55025;2020-11-11 01:25:58:736
-8.837;13.8882;5.8987;8.7883;-4.2242;-1.045;-17.6253;18.1124;6.9437;-1.3233;1.2669;-1.1497;0.0;18.42;-55.62;-14.7;195.4;30.95;-103.88;0.0;997.51;54.441;44.23376;-76.49325;290.32;NaN;;11.09;48.387096;80.3;7 / 21;55525;2020-11-11 01:25:59:236
-4.0318;-4.5065;-4.2264;8.2696;-5.1532;-1.1079;-12.3015;0.6467;-3.1185;-0.1534;-0.0048;-0.6072;0.0;21.0;-54.84;-15.72;183.44;22.32;-121.96;0.0;998.02;53.599;44.23376;-76.49325;290.32;NaN;;11.09;48.387096;80.3;7 / 21;56025;2020-11-11 01:25:59:736
-4.458;11.0055;-8.0116;8.5571;-4.7178;-0.8302;-13.0151;15.7233;-7.1814;1.2248;1.1531;-0.5041;0.0;25.38;-50.58;-12.96;199.14;28.1;-93.61;0.0;997.97;56.234;44.23376;-76.49325;290.32;NaN;;11.09;48.387096;80.3;7 / 21;56525;2020-11-11 01:26:00:236
1.4724;-3.0628;-0.9008;8.4853;-3.8993;-2.9943;-7.0128;0.8365;2.0935;1.1119;0.3225;-0.1326;0.0;28.5;-47.76;-10.62;188.34;22.94;-102.0;0.0;998.59;55.177;44.233814;-76.493225;274.19;NaN;;9.58;38.709675;33.6;7 / 21;57025;2020-11-11 01:26:00:736
-5.2289;11.9704;-1.7101;8.8099;-4.2591;-0.6443;-14.0389;16.2295;-1.0658;-1.1409;-0.155;-0.0357;0.0;29.46;-47.4;-10.92;194.62;30.83;-98.72;0.0;997.34;53.845;44.233814;-76.493225;274.19;NaN;;9.58;38.709675;33.6;7 / 21;57525;2020-11-11 01:26:01:236
-2.7988;-3.058;2.4032;7.5274;-6.1651;-1.2243;-10.3263;3.1071;3.6274;-0.5739;0.4778;-0.0242;0.0;29.82;-46.5;-12.72;171.08;34.84;-118.7;0.0;997.55;58.228;44.23384;-76.49322;274.19;NaN;;8.03;32.258064;21.0;7 / 21;58025;2020-11-11 01:26:01:736
-1.3024;2.1231;12.3702;8.4146;-4.1292;-2.8833;-9.7171;6.2523;15.2536;0.0035;0.2136;0.1441;0.0;30.48;-46.26;-11.7;187.39;28.49;-106.02;0.0;997.73;57.244;44.23384;-76.49322;274.19;NaN;;8.03;32.258064;21.0;7 / 21;58525;2020-11-11 01:26:02:236
1.0391;-3.0628;1.5101;8.4675;-2.2731;-4.3936;-13.7874;8.6699;-5.3035;1.3263;0.7641;-0.0128;0.0;30.72;-47.1;-9.36;170.69;13.4;-117.42;0.0;997.87;64.995;44.23387;-76.49323;274.19;NaN;;9.07;32.258064;5.3;7 / 21;59025;2020-11-11 01:26:02:736
-5.1906;13.9241;-3.1011;8.1928;-4.0099;-3.6012;-13.3835;17.9339;0.5001;-1.4307;-1.1177;-0.0722;0.0;31.92;-45.9;-8.04;170.67;11.65;-115.09;0.0;997.21;59.101;44.23387;-76.49323;274.19;NaN;;9.07;32.258064;5.3;7 / 21;59525;2020-11-11 01:26:03:236
-1.7909;-3.9846;3.459;6.3535;-6.4724;-3.7298;-8.1444;2.4878;7.1888;-0.9148;0.8906;0.7159;0.0;33.78;-43.14;-10.26;134.61;34.67;-137.62;0.0;997.63;50.788;44.23389;-76.493225;270.97;NaN;;8.32;32.258064;1.4;7 / 21;60025;2020-11-11 01:26:03:736
-0.395;3.0185;10.9481;5.8716;-5.2799;-5.8152;-6.2667;8.2984;16.7633;-0.3398;-0.7915;0.2136;0.0;34.5;-43.38;-9.66;139.79;33.21;-130.4;0.0;997.27;59.853;44.23389;-76.493225;270.97;NaN;;8.32;32.258064;1.4;7 / 21;60525;2020-11-11 01:26:04:236
-4.0941;4.6753;3.8756;6.3574;-1.7827;-7.2509;-10.4515;6.458;11.1265;-2.4107;-0.383;-0.4914;0.0;33.6;-44.34;-7.74;150.83;18.69;-134.07;0.0;998.05;62.032;44.233906;-76.49324;267.74;NaN;;7.09;32.258064;1.4;7 / 21;61024;2020-11-11 01:26:04:735
-5.952;3.957;-11.5143;5.8621;-1.5783;-7.7016;-11.8141;5.5353;-3.8127;0.551;-2.6506;-0.2887;0.0;33.18;-44.16;-9.36;149.15;22.38;-136.29;0.0;997.13;56.808;44.233906;-76.49324;267.74;NaN;;7.09;32.258064;1.4;7 / 21;61525;2020-11-11 01:26:05:236
-1.1851;-4.1593;6.8779;3.5758;-1.3883;-9.0253;-7.7633;13.4185;-0.0661;-0.7039;1.433;1.0003;0.0;32.76;-44.82;-9.6;146.96;8.14;-158.39;0.0;997.33;56.218;44.233932;-76.49325;264.52;NaN;;8.21;32.258064;350.7;7 / 21;62025;2020-11-11 01:26:05:736
-14.7722;19.6127;7.103;4.0548;-1.1461;-8.8552;-18.827;20.7588;15.9582;-0.0719;-2.1289;0.979;0.0;32.46;-45.66;-9.06;154.46;-1.24;-147.67;0.0;997.94;59.88;44.233932;-76.49325;264.52;NaN;;8.21;32.258064;350.7;7 / 21;62525;2020-11-11 01:26:06:236
-3.067;6.3105;7.3233;5.5229;0.0344;-8.1035;-8.5898;6.2761;15.4268;-1.2964;0.5191;-0.6533;0.0;32.16;-46.44;-7.02;152.91;7.48;-143.81;0.0;997.58;58.915;44.233955;-76.49325;261.29;NaN;;8.93;32.258064;341.1;7 / 21;63025;2020-11-11 01:26:06:736
-2.2027;0.6626;0.914;5.1972;-1.0176;-8.2536;-7.3999;1.6802;9.1676;-0.7609;-0.3928;0.6882;0.0;31.08;-46.62;-9.18;150.28;19.25;-145.98;0.0;997.88;64.136;44.233955;-76.49325;261.29;NaN;;8.93;32.258064;341.1;7 / 21;63525;2020-11-11 01:26:07:236
-9.3805;14.1515;-11.8184;4.5205;-2.5897;-8.3083;-13.901;16.7413;-3.5101;1.5105;0.579;-0.8149;0.0;31.26;-46.68;-9.42;158.12;6.07;-139.27;0.0;996.92;64.075;44.23398;-76.49325;261.29;NaN;;8.6;35.48387;2.1;7 / 21;64025;2020-11-11 01:26:07:736
0.0599;-3.3597;2.0536;6.3926;-1.9147;-7.186;-6.4491;-1.5687;9.1667;1.2991;0.4125;-0.0085;0.0;31.56;-46.92;-7.56;155.49;11.26;-138.34;0.0;997.94;66.96;44.23398;-76.49325;261.29;NaN;;8.6;35.48387;2.1;7 / 21;64525;2020-11-11 01:26:08:236
-6.4691;19.6127;-3.4482;6.2589;-2.3223;-7.1835;-13.9676;21.6596;2.5311;-2.1007;-1.6552;1.1239;0.0;30.9;-46.92;-7.08;160.5;18.34;-125.97;0.0;998.03;66.368;44.234005;-76.49325;258.06;NaN;;8.21;38.709675;5.4;7 / 21;65025;2020-11-11 01:26:08:736
-0.996;-4.8201;4.2515;6.8328;-5.6018;-4.2548;-7.9413;0.4335;8.7606;-0.7193;1.1835;0.84;0.0;31.08;-45.96;-8.22;147.31;37.17;-126.52;0.0;997.39;63.764;44.234005;-76.49325;258.06;NaN;;8.21;38.709675;5.4;7 / 21;65525;2020-11-11 01:26:09:236
-3.8786;8.8029;-5.6964;6.5164;-6.6241;-3.1349;-14.6065;23.2413;11.1292;1.5848;0.7657;-0.8962;0.0;31.08;-45.78;-9.78;159.94;42.49;-115.69;0.0;997.72;63.15;44.23404;-76.49326;258.06;NaN;;10.15;41.935486;350.9;7 / 21;66024;2020-11-11 01:26:09:735
-0.0551;-3.1322;2.3768;7.2635;-4.8389;-4.4718;-7.7412;1.2505;6.6059;1.0243;0.3225;-0.4708;0.0;30.66;-46.38;-8.88;160.8;29.57;-121.62;0.0;997.75;61.891;44.23404;-76.49326;258.06;NaN;;10.15;41.935486;350.9;7 / 21;66525;2020-11-11 01:26:10:236
-4.9225;16.6942;-1.8681;7.726;-3.5028;-4.9202;-11.1712;20.463;4.6832;-0.743;0.2565;-2.0043;0.0;31.32;-45.66;-8.28;162.85;20.93;-122.49;0.0;998.26;63.886;44.234074;-76.49327;254.84;NaN;;9.0;38.709675;357.6;7 / 21;67025;2020-11-11 01:26:10:736
-0.3591;-2.5935;3.1406;7.2232;-5.476;-3.7429;-7.4378;2.474;7.6553;-0.8868;-0.2626;1.0232;0.0;31.74;-44.94;-9.3;160.64;33.95;-117.39;0.0;997.95;58.776;44.234074;-76.49327;254.84;NaN;;9.0;38.709675;357.6;7 / 21;67525;2020-11-11 01:26:11:236
-11.6622;19.6127;11.4174;6.646;-4.9387;-5.2545;-17.9713;24.3393;17.2503;2.2024;0.9942;-0.828;0.0;31.98;-43.98;-9.72;160.77;25.56;-122.9;0.0;998.19;53.249;44.2341;-76.49329;254.84;NaN;;9.36;38.709675;354.7;7 / 21;68026;2020-11-11 01:26:11:737
-2.8204;6.4949;2.0153;5.5901;-2.9779;-7.4868;-8.1027;9.9408;9.5248;0.714;0.0996;-0.2637;0.0;29.94;-43.38;-11.22;149.6;20.72;-144.71;0.0;997.51;56.268;44.2341;-76.49329;254.84;NaN;;9.36;38.709675;354.7;7 / 21;68526;2020-11-11 01:26:12:237
-4.7094;18.6454;-2.797;6.0808;-2.9339;-7.1124;-8.1734;4.1845;9.1744;-0.6043;-2.0735;-3.0275;0.0;27.24;-43.98;-7.8;156.31;17.41;-139.47;0.0;997.94;56.824;44.234135;-76.49329;248.39;NaN;;7.92;35.48387;359.4;7 / 21;69025;2020-11-11 01:26:12:736
-0.6105;-2.8832;-0.4196;6.1023;-5.3714;-5.4845;-7.087;2.7267;4.3504;0.1108;0.8682;-0.6711;0.0;28.68;-43.26;-7.26;146.72;33.21;-131.95;0.0;998.17;56.817;44.234135;-76.49329;248.39;NaN;;7.92;35.48387;359.4;7 / 21;69525;2020-11-11 01:26:13:236
-3.7373;4.3568;9.7294;3.4777;-3.5119;-8.4701;-6.1967;7.8158;18.5701;1.498;-0.3521;0.0858;0.0;30.54;-43.08;-7.5;142.26;20.98;-157.68;0.0;998.15;55.139;44.234135;-76.49329;248.39;NaN;;7.92;35.48387;359.4;7 / 21;70025;2020-11-11 01:26:13:736
0.7398;11.2833;-8.6293;4.8741;-3.136;-7.9106;-4.7641;15.8262;-1.9033;0.6333;-0.4732;-0.388;0.0;31.14;-43.5;-6.36;145.57;18.65;-148.36;0.0;997.36;54.959;44.234135;-76.49329;248.39;NaN;;7.92;35.48387;359.4;7 / 21;70525;2020-11-11 01:26:14:236
-1.0487;-1.4706;3.4471;6.0878;-2.9377;-7.1048;-7.0403;2.2013;10.2872;0.0109;-1.8645;-2.4773;0.0;31.56;-42.48;-7.86;149.09;22.6;-134.39;0.0;997.44;57.134;44.23416;-76.49329;248.39;NaN;;3.85;35.48387;46.9;7 / 21;71025;2020-11-11 01:26:14:736
-4.2641;12.9209;-5.9382;6.356;-4.1712;-6.1945;-9.4282;15.4888;1.9932;0.4013;0.5883;-0.6035;0.0;31.56;-42.72;-8.28;146.5;14.85;-149.74;0.0;997.43;55.7;44.23416;-76.49329;248.39;NaN;;3.85;35.48387;46.9;7 / 21;71525;2020-11-11 01:26:15:236
0.7183;-0.5752;6.21;5.782;-2.4655;-7.5272;-9.4751;1.3937;6.9808;1.4432;0.2842;0.1646;0.0;32.1;-43.86;-7.56;150.4;14.56;-142.47;0.0;997.56;58.844;44.234177;-76.49329;245.16;NaN;;4.36;35.48387;30.6;7 / 21;72025;2020-11-11 01:26:15:736
-5.2792;18.7771;-12.2038;3.9214;-1.4021;-8.8784;-8.8655;20.6322;-3.267;-0.9329;-1.5324;-0.486;0.0;32.58;-43.8;-6.12;145.8;8.22;-156.17;0.0;997.59;59.087;44.234177;-76.49329;245.16;NaN;;4.36;35.48387;30.6;7 / 21;72526;2020-11-11 01:26:16:237
0.905;-4.2383;3.2986;4.9083;-4.6535;-7.1009;-3.9421;-0.7434;11.0743;-0.3816;0.2831;-0.3864;0.0;31.2;-43.8;-9.0;142.8;28.33;-145.35;0.0;998.25;60.819;44.234196;-76.49329;248.39;NaN;;5.22;32.258064;11.9;7 / 21;73026;2020-11-11 01:26:16:737
-12.1649;17.1826;-15.3259;4.2304;-3.6013;-8.0811;-15.3657;21.4775;-7.1113;0.5731;2.0147;-0.8914;0.0;31.32;-43.14;-9.72;143.3;17.47;-161.62;0.0;997.37;61.194;44.234226;-76.493324;248.39;NaN;;8.96;32.258064;334.2;7 / 21;73525;2020-11-11 01:26:17:236
-2.8228;2.0369;-1.3844;5.2113;-2.6021;-7.8893;-7.8665;4.9794;6.4942;1.0402;0.4165;0.0352;0.0;31.26;-43.14;-8.22;146.8;15.87;-150.65;0.0;998.3;62.308;44.234226;-76.493324;248.39;NaN;;8.96;32.258064;334.2;7 / 21;74025;2020-11-11 01:26:17:736
-0.1867;12.0925;-5.4091;5.0029;-2.4495;-8.071;-15.4103;21.6641;4.1353;-0.726;-2.4488;1.6003;0.0;29.16;-43.26;-6.36;149.55;14.46;-148.21;0.0;997.64;63.538;44.234226;-76.493324;248.39;NaN;;8.96;32.258064;334.2;7 / 21;74526;2020-11-11 01:26:18:237
-3.948;-6.1154;-2.4499;5.8518;-5.1916;-5.9138;-10.6413;-1.839;3.3018;1.6349;-0.1382;-0.6469;0.0;26.52;-43.56;-10.38;152.66;31.97;-135.3;0.0;998.08;63.987;44.23426;-76.493324;245.16;NaN;;9.0;32.258064;345.8;7 / 21;75025;2020-11-11 01:26:18:736
-9.0142;19.6127;-13.3052;6.8342;-3.3341;-6.1926;-15.7494;23.0542;-7.0631;-0.1691;0.2091;1.0155;0.0;26.82;-43.14;-12.42;163.35;19.88;-132.18;0.0;997.76;54.133;44.23426;-76.493324;245.16;NaN;;9.0;32.258064;345.8;7 / 21;75525;2020-11-11 01:26:19:236
-0.0766;5.0009;0.1383;5.2444;-2.0771;-8.022;-4.6346;5.5176;8.8059;0.22;0.9065;-0.1023;0.0;31.02;-41.22;-8.4;148.4;12.23;-146.83;0.0;998.77;58.928;44.234295;-76.49334;245.16;NaN;;10.01;32.258064;351.7;7 / 21;76025;2020-11-11 01:26:19:736
-1.9489;3.72;3.8182;7.2866;-3.5216;-5.5383;-9.002;7.7995;9.2753;-0.3388;0.0695;-1.1678;0.0;30.66;-42.36;-13.68;163.43;22.8;-127.39;0.0;997.4;60.905;44.234295;-76.49334;245.16;NaN;;10.01;32.258064;351.7;7 / 21;76525;2020-11-11 01:26:20:236
-7.9775;17.987;-2.1075;4.383;0.0765;-8.7723;-12.731;18.3503;6.4623;-0.3862;-0.9004;-1.2863;0.0;29.64;-42.36;-19.32;163.97;5.3;-140.6;3.1;997.52;62.981;44.23432;-76.49335;245.16;NaN;;8.89;32.258064;357.6;7 / 21;77025;2020-11-11 01:26:20:736
-2.5474;4.5651;11.731;1.5135;2.527;-9.3538;-5.1393;0.4371;12.8764;-2.2679;-0.3912;0.078;36.0;30.12;-21.42;-32.52;140.87;-14.93;-170.81;3.1;997.72;54.282;44.23432;-76.49335;245.16;NaN;;8.89;32.258064;357.6;7 / 21;77526;2020-11-11 01:26:21:237
-2.217;0.562;19.6127;0.1535;2.5646;-9.4641;-2.0954;-2.6681;28.8713;-0.9617;0.8978;1.6898;26.0;16.92;-2.58;-47.34;133.22;-15.16;-179.07;0.0;997.71;50.819;44.234352;-76.493355;238.71;NaN;;8.35;32.258064;3.4;7 / 21;78025;2020-11-11 01:26:21:736
2.3415;0.6219;6.9115;3.0248;-1.8222;-9.1487;0.5129;2.081;16.435;1.3127;-1.261;0.6312;0.0;6.42;5.04;-51.42;324.13;10.71;-161.7;0.0;997.8;33.214;44.234352;-76.493355;238.71;NaN;;8.35;32.258064;3.4;7 / 21;78525;2020-11-11 01:26:22:236
-2.6049;6.0112;18.0637;3.418;-2.9523;-8.7047;-5.6349;9.1307;26.8533;0.1132;0.3451;1.1966;0.0;6.84;2.04;-52.32;324.09;17.52;-158.56;0.0;997.51;60.961;44.23439;-76.49336;238.71;NaN;;9.25;32.258064;350.1;7 / 21;79025;2020-11-11 01:26:22:736
1.7669;-1.5927;-0.489;-6.9639;-3.3738;-6.0242;10.3675;1.1022;3.3757;0.3257;5.4233;-1.5119;0.0;4.86;-4.32;-52.98;85.8;19.47;119.78;0.0;997.56;42.672;44.23439;-76.49336;238.71;NaN;;9.25;32.258064;350.1;7 / 21;79525;2020-11-11 01:26:23:236
0.7087;1.5197;7.6489;-3.5529;-0.9694;-9.0888;2.9171;2.609;17.1413;-1.0637;-1.7095;-1.0554;0.0;-6.12;-3.24;-50.52;358.15;7.24;173.42;0.0;997.47;46.834;44.234425;-76.49337;241.94;NaN;;9.9;32.258064;352.1;7 / 21;80025;2020-11-11 01:26:23:736
3.1603;-4.2096;7.4741;-1.9382;-0.5489;-9.5975;5.3207;-2.7279;21.1164;0.6445;-0.7595;0.5939;0.0;-3.36;6.0;-52.02;39.64;3.21;168.58;0.0;997.52;38.593;44.234425;-76.49337;241.94;NaN;;9.9;32.258064;352.1;7 / 21;80525;2020-11-11 01:26:24:236
-2.9161;2.3936;8.4294;-0.657;-1.2066;-9.7099;-1.1214;3.7877;17.969;-0.9542;-0.9521;-0.9414;0.0;-0.48;9.66;-52.74;43.9;8.97;161.25;0.0;997.53;36.682;44.234444;-76.49337;245.16;NaN;;8.96;32.258064;353.7;7 / 21;81024;2020-11-11 01:26:24:735
-2.9161;2.3936;8.4294;-0.657;-1.2066;-9.7099;-1.1214;3.7877;17.969;-0.9542;-0.9521;-0.9414;0.0;-0.48;9.66;-52.74;43.9;8.97;161.25;0.0;997.53;36.682;44.234444;-76.49337;245.16;NaN;;8.96;32.258064;353.7;7 / 21;81525;2020-11-11 01:26:25:236
1.4174;2.8964;11.3072;-0.5982;-1.6906;-9.6413;2.5644;5.1062;20.7925;1.3364;-0.3204;-0.0415;0.0;1.02;7.92;-51.96;352.27;12.04;-176.11;0.0;997.5;24.16;44.23449;-76.49338;248.39;NaN;;11.02;29.032257;354.6;7 / 21;82026;2020-11-11 01:26:25:737
1.5347;-0.0413;4.8524;-0.2187;-2.0343;-9.5908;1.4722;1.4728;14.5413;-0.9228;-1.3132;0.3225;0.0;-2.04;4.8;-50.64;1.81;20.02;176.97;0.0;997.51;31.058;44.234505;-76.49338;248.39;NaN;;7.56;25.806452;9.7;7 / 21;82525;2020-11-11 01:26:26:236
-8.4779;2.2476;9.5331;0.6984;-1.6168;-9.6472;-10.7968;5.2502;18.5762;0.0482;1.2445;1.539;0.0;-3.6;6.36;-48.12;331.56;9.49;-175.86;0.0;997.5;39.164;44.234505;-76.49338;248.39;NaN;;7.56;25.806452;9.7;7 / 23;83025;2020-11-11 01:26:26:736
-2.5474;2.214;9.5068;-0.8863;-3.3143;-9.1869;-2.4601;5.1371;18.8672;0.0413;0.7199;0.0376;0.0;0.24;5.04;-46.62;12.41;19.75;174.49;0.0;997.52;51.042;44.234505;-76.49338;248.39;NaN;;7.56;25.806452;9.7;7 / 23;83525;2020-11-11 01:26:27:236
1.4365;0.9714;6.5547;-0.1424;-3.3115;-9.2295;0.4829;4.5086;15.6514;0.6831;-1.506;-0.8253;0.0;4.26;1.44;-45.96;341.48;23.26;-167.11;0.0;997.42;37.332;44.234543;-76.49342;258.06;NaN;;13.21;22.580645;327.0;7 / 23;84025;2020-11-11 01:26:27:736
2.1572;3.3058;9.7773;0.5646;-2.8546;-9.3649;-2.514;6.6491;22.8746;-0.4565;0.2;1.2562;0.0;2.82;0.6;-46.38;353.7;18.01;-174.18;0.0;997.45;34.098;44.234543;-76.49342;258.06;NaN;;13.21;22.580645;327.0;7 / 23;84525;2020-11-11 01:26:28:236