sep=;
ACCELEROMETER X (m/s²);ACCELEROMETER Y (m/s²);ACCELEROMETER Z (m/s²);GRAVITY X (m/s²);GRAVITY Y (m/s²);GRAVITY Z (m/s²);LINEAR ACCELERATION X (m/s²);LINEAR ACCELERATION Y (m/s²);LINEAR ACCELERATION Z (m/s²);GYROSCOPE X (rad/s);GYROSCOPE Y (rad/s);GYROSCOPE Z (rad/s);LIGHT (lux);MAGNETIC FIELD X (μT);MAGNETIC FIELD Y (μT);MAGNETIC FIELD Z (μT);ORIENTATION Z (azimuth °);ORIENTATION X (pitch °);ORIENTATION Y (roll °);PROXIMITY (i);ATMOSPHERIC PRESSURE (hPa);SOUND LEVEL (dB);LOCATION Latitude : ;LOCATION Longitude : ;LOCATION Altitude ( m);LOCATION Altitude-google ( m);LOCATION Altitude-atmospheric pressure ( m);LOCATION Speed ( Kmh);LOCATION Accuracy ( m);LOCATION ORIENTATION (°);Satellites in range;Time since start in ms ;YYYY-MO-DD HH-MI-SS_SSS
-8.7364;1.6658;11.3862;5.7956;-1.1787;-7.8225;-11.2448;2.7966;15.3301;-0.6671;0.6621;0.2288;3.0;30.18;-12.48;-45.72;211.63;6.9;-143.47;8.0;997.4;25.386;44.234722;-76.49347;254.84;NaN;;2.63;19.35484;2.8;0 / 22;21;2020-11-11 01:27:21:710
2.2793;7.8284;-4.5376;0.3717;-9.7141;-1.2914;1.9076;17.5425;-3.2462;3.1521;0.5758;2.8871;0.0;33.54;-7.86;-43.38;354.93;72.63;-137.05;8.0;997.46;58.606;44.234722;-76.49347;254.84;NaN;;2.63;19.35484;2.8;0 / 22;521;2020-11-11 01:27:22:210
6.2393;6.4566;-2.6917;-5.1325;-8.2935;1.0223;11.3718;14.7501;-3.714;0.1049;1.0991;-0.4072;0.0;27.06;-36.06;-25.44;157.18;57.75;78.74;0.0;997.43;60.908;44.234905;-76.49351;300.0;NaN;;2.2;48.387096;2.8;0 / 22;1021;2020-11-11 01:27:22:710
6.019;6.8157;-4.6813;-6.0744;-6.9292;3.3553;12.0934;13.7449;-8.0366;0.2775;-0.3529;0.9862;0.0;3.06;-55.92;-9.36;171.79;44.96;61.08;0.0;997.41;46.249;44.234905;-76.49351;300.0;NaN;;2.2;48.387096;2.8;0 / 22;1521;2020-11-11 01:27:23:210
-1.2953;3.8182;-2.8305;-3.2819;-7.1424;5.8639;1.9866;10.9606;-8.6944;1.0557;-2.2387;-0.9998;0.0;-19.26;-50.7;3.9;150.3;46.75;29.23;0.0;997.44;50.248;44.234913;-76.493576;287.1;NaN;;2.92;48.387096;316.5;7 / 22;2021;2020-11-11 01:27:23:710
4.7716;1.9531;-0.477;-7.1587;-5.8692;3.2365;10.2544;12.1606;-7.6257;-1.7662;0.6378;0.4852;0.0;-20.58;-45.66;18.18;200.29;36.76;65.67;0.0;997.46;69.865;44.234913;-76.493576;287.1;NaN;;2.92;48.387096;316.5;7 / 22;2521;2020-11-11 01:27:24:210
9.3182;6.5092;3.5261;-8.9073;-4.0527;0.6367;18.2255;10.5619;2.8893;-1.0594;1.2914;0.9052;0.0;-22.8;-44.82;19.08;213.16;34.56;79.66;0.0;997.39;69.865;44.234917;-76.49358;277.42;NaN;;3.2;38.709675;290.9;7 / 22;3022;2020-11-11 01:27:24:711
9.3182;6.5092;3.5261;-8.9073;-4.0527;0.6367;18.2255;10.5619;2.8893;-1.0594;1.2914;0.9052;0.0;-22.8;-44.82;19.08;213.16;34.56;79.66;0.0;997.39;69.865;44.234917;-76.49358;277.42;NaN;;3.2;38.709675;290.9;7 / 22;3524;2020-11-11 01:27:25:213
3.5099;11.6065;1.1797;-3.6478;-8.9798;1.4926;6.7004;21.7139;-1.1029;0.3955;0.5875;-0.5318;0.0;-34.5;-42.0;6.72;50.83;56.15;68.21;0.0;997.54;62.817;44.23494;-76.493614;274.19;NaN;;6.66;38.709675;307.0;7 / 22;4021;2020-11-11 01:27:25:710
-0.1221;11.5442;-0.9152;-4.4826;-8.6857;0.797;4.3605;20.2299;-1.7121;0.9023;-0.5249;1.1436;0.0;-15.66;-52.2;5.04;200.77;54.92;95.63;0.0;997.4;45.63;44.23494;-76.493614;274.19;NaN;;6.66;38.709675;307.0;7 / 22;4521;2020-11-11 01:27:26:210
2.3822;7.8931;2.6929;-5.0734;-8.2221;1.6817;13.4076;18.8254;-8.2496;0.4522;-0.2637;0.2394;0.0;-9.06;-56.04;2.7;180.04;56.97;71.66;0.0;997.53;41.924;44.23493;-76.49359;274.19;NaN;;3.56;32.258064;292.4;7 / 22;5021;2020-11-11 01:27:26:710
8.2887;11.0774;6.5116;-6.0297;-7.6351;-1.2324;15.0917;17.003;1.5072;0.0533;-0.1244;0.9806;0.0;-11.82;-55.44;1.98;189.64;51.13;101.55;0.0;997.52;45.587;44.23493;-76.49359;274.19;NaN;;3.56;32.258064;292.4;7 / 22;5521;2020-11-11 01:27:27:210
9.7851;11.652;-3.0915;-5.0628;-8.3352;1.0307;9.4059;21.5673;-1.266;0.3649;-0.9172;0.4194;0.0;-12.78;-54.78;0.0;172.36;54.2;76.94;0.0;997.49;40.693;44.234932;-76.4936;264.52;NaN;;2.34;35.48387;292.4;7 / 22;6022;2020-11-11 01:27:27:711
3.1795;10.6871;1.6969;-6.6376;-7.126;-1.1541;16.9399;17.8012;6.4973;1.0266;-1.1444;0.881;0.0;-15.0;-54.72;0.06;187.88;55.06;100.31;0.0;997.44;49.062;44.234932;-76.4936;264.52;NaN;;2.34;35.48387;292.4;7 / 22;6522;2020-11-11 01:27:28:211
6.098;13.1244;1.9555;-5.8901;-7.5082;2.2594;15.2658;18.394;-6.7754;0.4783;0.9731;-0.4264;0.0;-16.74;-54.42;0.0;165.82;51.9;72.19;0.0;997.53;50.44;44.234943;-76.49364;274.19;NaN;;5.33;35.48387;303.0;7 / 22;7021;2020-11-11 01:27:28:710
9.5146;10.1317;3.0281;-6.44;-7.2747;-1.3322;15.8277;14.2484;1.9421;-0.3822;-0.2333;0.6408;0.0;-16.86;-52.2;0.12;195.39;53.6;106.7;0.0;997.46;52.909;44.234943;-76.49364;274.19;NaN;;5.33;35.48387;303.0;7 / 22;7521;2020-11-11 01:27:29:210
8.9495;9.071;-8.9262;-5.7803;-7.6897;1.9046;14.7681;17.3592;-2.4918;0.0091;-1.0434;0.175;0.0;-16.8;-49.44;0.18;163.31;51.64;71.76;0.0;997.76;53.638;44.23495;-76.49367;287.1;NaN;;4.97;38.709675;301.5;7 / 22;8021;2020-11-11 01:27:29:710
8.1068;7.3544;0.064;-6.2364;-7.38;-1.6771;14.4868;13.3865;3.307;0.1441;0.2929;-0.2232;0.0;-17.46;-49.2;-0.84;189.92;48.81;105.05;0.0;997.46;57.257;44.23495;-76.49367;287.1;NaN;;4.97;38.709675;301.5;7 / 22;8520;2020-11-11 01:27:30:209
-0.656;2.8557;-0.9535;-5.8468;-7.8265;0.8553;11.7652;11.0389;1.7442;-0.3806;-1.905;-0.3222;0.0;-18.24;-49.86;-2.04;164.15;52.95;81.68;0.0;997.4;49.221;44.23496;-76.4937;280.65;NaN;;4.79;38.709675;302.7;7 / 22;9021;2020-11-11 01:27:30:710
9.0237;8.2211;-0.6111;-6.1512;-7.5197;-1.3368;15.175;15.7407;0.7257;0.0602;0.1981;0.4155;0.0;-19.38;-51.06;-1.92;186.53;50.07;102.26;0.0;997.39;54.517;44.23496;-76.4937;280.65;NaN;;4.79;38.709675;302.7;7 / 22;9521;2020-11-11 01:27:31:210
9.1889;8.4868;-1.485;-6.3914;-7.2763;1.5415;15.5803;15.7631;-3.0265;0.0333;-0.4485;0.2407;0.0;-19.56;-51.12;-2.16;161.75;47.9;76.44;0.0;997.61;59.303;44.234962;-76.49372;296.77;NaN;;4.75;41.935486;271.8;7 / 22;10021;2020-11-11 01:27:31:710
8.2552;6.8253;0.1574;-5.749;-7.8117;-1.4476;14.0042;14.637;1.605;-0.1292;0.436;-0.3286;0.0;-19.32;-50.76;-1.26;192.95;52.8;104.13;0.0;997.23;53.538;44.234962;-76.49372;296.77;NaN;;4.75;41.935486;271.8;7 / 22;10521;2020-11-11 01:27:32:210
10.5369;11.9824;-4.6406;-6.3631;-7.257;1.7368;8.1324;11.8964;-5.0486;-0.6104;0.0602;0.2908;0.0;-18.78;-50.58;-0.36;166.44;47.73;74.73;0.0;997.39;55.731;44.234962;-76.49374;293.55;NaN;;3.71;41.935486;310.6;7 / 22;11021;2020-11-11 01:27:32:710
8.6263;7.2826;-0.5441;-5.6236;-7.8265;-1.8143;10.7927;11.5991;3.0132;-0.2205;0.885;-0.58;0.0;-19.14;-50.16;-0.9;197.53;52.95;107.88;0.0;997.69;55.159;44.234962;-76.49374;293.55;NaN;;3.71;41.935486;310.6;7 / 22;11522;2020-11-11 01:27:33:211
5.2385;7.0695;-4.2671;-5.7637;-7.5846;2.329;11.0022;14.6541;-6.596;-0.0091;-0.5814;0.2735;0.0;-19.56;-47.7;-0.9;152.79;50.66;68.0;0.0;997.85;58.635;44.234966;-76.49375;303.23;NaN;;2.12;45.16129;310.6;7 / 22;12021;2020-11-11 01:27:33:710
8.2959;4.4909;0.1502;-6.0944;-7.4719;-1.7888;14.3903;11.9628;1.939;-0.1846;0.5103;-0.547;0.0;-19.26;-46.86;-0.48;197.92;49.63;106.36;0.0;997.45;50.915;44.234966;-76.49375;303.23;NaN;;2.12;45.16129;310.6;7 / 22;12547;2020-11-11 01:27:34:236
10.7691;10.2873;-3.1681;-5.3986;-8.0185;1.6517;4.089;11.0753;-4.4871;-0.7436;-0.082;0.0189;0.0;-19.98;-50.82;-1.32;154.01;54.85;72.99;0.0;997.48;57.685;44.234978;-76.493774;300.0;NaN;;3.74;41.935486;307.7;7 / 21;13047;2020-11-11 01:27:34:736
7.853;5.9993;1.23;-5.2235;-8.0954;-1.83;9.9257;12.5097;3.0313;-0.1033;0.9486;-0.4738;0.0;-21.24;-54.0;-1.86;200.43;55.64;109.31;0.0;997.4;53.769;44.234978;-76.493774;300.0;NaN;;3.74;41.935486;307.7;7 / 21;13547;2020-11-11 01:27:35:236
3.5554;6.3656;-3.5727;-5.3434;-8.0646;1.6066;8.8988;14.4302;-5.1793;-0.6802;-1.3715;-0.1758;0.0;-21.6;-53.82;-2.46;163.14;50.63;81.15;0.0;997.34;55.657;44.234978;-76.493805;300.0;NaN;;7.27;41.935486;272.0;7 / 21;14047;2020-11-11 01:27:35:736
7.3023;4.4263;0.5764;-5.6693;-7.7392;-2.033;12.9716;12.1655;2.6094;-0.0818;0.796;-0.6772;0.0;-21.48;-52.38;-2.22;198.23;52.11;109.73;0.0;997.36;55.041;44.234978;-76.493805;300.0;NaN;;7.27;41.935486;272.0;7 / 21;14547;2020-11-11 01:27:36:236
-1.4485;3.2148;-1.9662;-6.6971;-7.1448;0.52;5.2486;10.3596;-2.4862;-0.6746;0.0301;0.0956;0.0;-21.18;-51.42;-1.68;169.64;46.77;85.56;0.0;997.38;56.924;44.234997;-76.49385;290.32;NaN;;8.53;41.935486;297.6;7 / 21;15047;2020-11-11 01:27:36:736
3.6416;5.0655;1.4838;-6.0574;-7.6173;-1.2061;9.699;12.6828;2.6899;-0.212;1.1593;-0.2719;0.0;-21.18;-51.12;-2.04;187.7;50.96;101.26;0.0;997.21;54.141;44.234997;-76.49385;290.32;NaN;;8.53;41.935486;297.6;7 / 21;15547;2020-11-11 01:27:37:236
2.3559;5.5109;-2.9862;-7.1809;-6.6512;0.6057;13.6213;9.9498;1.4144;-0.478;-1.7611;-0.2708;0.0;-21.54;-51.3;-1.8;170.4;42.71;85.18;0.0;997.17;50.219;44.235;-76.49386;287.1;NaN;;6.41;38.709675;296.2;7 / 21;16047;2020-11-11 01:27:37:736
5.7102;3.6075;1.8645;-6.178;-7.4007;-1.7976;11.8882;11.0082;3.662;-0.1901;1.807;0.4053;0.0;-22.08;-51.48;-1.74;180.85;54.25;95.65;0.0;997.19;53.428;44.235;-76.49386;287.1;NaN;;6.41;38.709675;296.2;7 / 21;16557;2020-11-11 01:27:38:246
0.6464;2.0608;0.6387;-5.7225;-7.7969;1.6218;6.369;9.8577;-0.9832;0.5782;-1.395;-0.7047;0.0;-22.68;-51.66;-0.84;173.53;47.01;87.2;0.0;997.64;49.9;44.23501;-76.49388;283.87;NaN;;4.57;35.48387;294.8;7 / 21;17047;2020-11-11 01:27:38:736
1.9106;6.1381;0.1526;-5.9328;-7.6535;-1.548;7.8434;13.7916;1.7006;0.0258;1.5092;0.1561;0.0;-22.02;-51.96;-0.48;199.26;51.3;104.62;0.0;997.51;52.892;44.23501;-76.49388;283.87;NaN;;4.57;35.48387;294.8;7 / 21;17547;2020-11-11 01:27:39:236
7.3765;4.3305;-0.0126;-6.7852;-7.0802;-0.0536;14.1617;11.4107;0.041;-0.4293;-2.0663;-0.4818;0.0;-21.18;-51.24;0.36;180.47;46.22;90.45;0.0;997.45;59.256;44.23501;-76.49388;283.87;NaN;;4.57;35.48387;294.8;7 / 21;18046;2020-11-11 01:27:39:735
4.7956;3.4806;1.7041;-5.9326;-7.7408;-1.0265;13.0662;18.011;3.4455;-0.0999;1.5276;0.4551;0.0;-20.46;-50.34;-0.72;189.18;52.12;99.82;0.0;997.25;55.106;44.23501;-76.49388;283.87;NaN;;4.57;35.48387;294.8;7 / 21;18547;2020-11-11 01:27:40:236
3.4046;2.2308;2.0752;-6.9327;-6.9357;0.0523;12.2474;17.8102;0.6569;0.9095;-1.1689;-0.7041;0.0;-20.1;-51.06;-1.2;176.99;45.01;89.57;0.0;997.32;57.63;44.23501;-76.49388;283.87;NaN;;4.57;35.48387;294.8;7 / 21;19047;2020-11-11 01:27:40:736
1.5945;5.6401;0.0784;-5.8047;-7.8679;-0.7556;7.5624;13.2798;1.5585;-1.5569;1.2932;0.0173;0.0;-20.76;-51.42;-1.98;183.08;53.35;97.42;0.0;997.54;54.074;44.23501;-76.49388;283.87;NaN;;4.57;35.48387;294.8;7 / 21;19547;2020-11-11 01:27:41:236
8.2815;5.135;-0.3525;-6.7912;-7.071;-0.2237;15.2083;12.072;-0.6113;-0.3904;-2.0735;-0.3859;0.0;-21.0;-51.36;-2.28;176.29;46.14;91.89;0.0;997.25;54.814;44.235016;-76.49391;287.1;NaN;;4.93;32.258064;304.8;7 / 21;20047;2020-11-11 01:27:41:736
6.3782;9.7486;1.6562;-5.6625;-7.9365;-1.0572;12.1758;17.6025;2.5903;-0.0304;1.7332;0.5654;0.0;-21.3;-51.78;-2.64;183.87;54.03;100.58;0.0;997.61;54.972;44.235016;-76.49391;287.1;NaN;;4.93;32.258064;304.8;7 / 21;20548;2020-11-11 01:27:42:237
7.3622;9.6792;-0.4076;-6.6787;-7.1795;0.1419;13.8673;17.0173;-0.3367;0.8013;-1.2922;-0.8032;0.0;-21.96;-51.72;-0.96;191.06;49.59;101.35;0.0;997.19;56.218;44.23502;-76.49393;280.65;NaN;;4.32;29.032257;329.8;7 / 21;21047;2020-11-11 01:27:42:736
1.403;5.9418;-0.0341;-5.4403;-8.0508;-1.3257;9.8569;13.1062;3.8663;-1.4099;0.3617;0.1332;0.0;-21.9;-50.7;-0.42;204.23;55.18;103.69;0.0;997.66;54.589;44.23502;-76.49393;280.65;NaN;;4.32;29.032257;329.8;7 / 21;21547;2020-11-11 01:27:43:236
7.2688;3.3848;0.8877;-6.5205;-7.3239;-0.1163;8.6269;17.8489;2.1498;0.5302;-0.7662;-0.2256;0.0;-21.3;-50.46;0.42;181.22;48.32;91.02;0.0;997.17;54.033;44.235023;-76.49395;280.65;NaN;;4.75;25.806452;302.0;7 / 21;22047;2020-11-11 01:27:43:736
4.9297;7.3089;-2.8593;-4.7663;-8.409;-1.6558;9.6296;15.7202;-1.0344;-0.927;1.232;-0.0775;0.0;-21.06;-50.7;-0.06;216.74;59.03;109.16;0.0;997.77;55.976;44.235035;-76.493965;277.42;NaN;;5.54;25.806452;309.1;7 / 21;22547;2020-11-11 01:27:44:236
9.8952;6.0663;-1.552;-5.8792;-7.7898;-0.9612;16.3011;13.4909;-1.6548;0.2863;-1.5992;-0.6868;0.0;-21.42;-50.94;-0.36;193.14;52.59;99.29;0.0;997.67;51.887;44.235035;-76.493965;277.42;NaN;;5.54;25.806452;309.1;7 / 21;23047;2020-11-11 01:27:44:736
3.7397;6.447;2.6618;-5.5188;-8.0395;1.0385;9.3287;14.4438;3.6538;-0.8996;0.383;0.2421;0.0;-21.42;-50.88;-0.48;162.46;55.07;79.34;0.0;997.7;56.085;44.23504;-76.49398;280.65;NaN;;5.36;25.806452;295.8;7 / 21;23547;2020-11-11 01:27:45:236
3.735;12.1715;0.9691;-6.6321;-7.2229;0.1199;10.067;19.5838;2.033;0.6818;-1.0003;-0.5587;0.0;-21.54;-50.76;0.54;194.06;41.51;103.34;0.0;997.17;54.201;44.23504;-76.49398;280.65;NaN;;5.36;25.806452;295.8;7 / 21;24047;2020-11-11 01:27:45:736
4.9775;6.7032;-3.2807;-5.768;-7.8753;-0.9375;9.519;15.4569;2.8089;-1.0962;1.1454;0.1899;0.0;-21.3;-50.76;-0.48;193.77;53.42;99.23;0.0;997.38;54.465;44.23505;-76.494;283.87;NaN;;4.32;25.806452;305.5;7 / 21;24547;2020-11-11 01:27:46:236
9.1459;6.0112;-1.5066;-6.3537;-7.3903;-1.0881;15.7232;17.0734;6.9335;0.7822;-0.6639;0.6551;0.0;-20.82;-50.76;0.18;191.19;48.9;99.72;0.0;997.46;54.016;44.23505;-76.494;283.87;NaN;;4.32;25.806452;305.5;7 / 21;25047;2020-11-11 01:27:46:736
3.4955;6.1142;2.7503;-5.3919;-8.1664;0.6381;8.7799;14.3117;3.7733;0.3686;0.6751;-0.2631;0.0;-21.6;-51.12;-0.84;160.56;56.38;83.25;0.0;997.56;55.828;44.23505;-76.494;283.87;NaN;;4.32;25.806452;305.5;7 / 21;25547;2020-11-11 01:27:47:236
6.9935;8.664;-1.2911;-7.0518;-6.7898;-0.5841;9.7237;16.591;2.0536;0.2447;-0.527;-0.2154;0.0;-22.2;-51.48;-0.36;184.8;43.82;94.74;0.0;997.61;50.75;44.23506;-76.49402;280.65;NaN;;4.9;25.806452;307.2;7 / 21;26047;2020-11-11 01:27:47:736
5.0589;7.9386;4.0025;-6.1342;-7.4572;1.7121;10.846;14.5722;-1.1405;-0.9617;1.0866;-0.1529;0.0;-22.08;-51.3;-0.06;160.82;49.5;74.41;0.0;997.22;56.594;44.23506;-76.49402;280.65;NaN;;4.9;25.806452;307.2;7 / 21;26547;2020-11-11 01:27:48:236
3.8451;9.3942;1.9746;-7.7335;-5.9198;-1.1486;17.995;17.4186;6.7432;1.526;-1.3896;1.1808;0.0;-21.48;-50.7;1.5;190.14;37.13;98.45;0.0;997.47;51.294;44.23506;-76.49402;280.65;NaN;;4.9;25.806452;307.2;7 / 21;27047;2020-11-11 01:27:48:736
7.2999;11.7765;0.4854;-5.8419;-7.1008;3.4089;15.9287;16.6627;-8.9664;0.5025;1.029;-0.3704;0.0;-20.52;-50.7;0.54;155.85;46.39;59.74;0.0;997.61;53.23;44.23506;-76.49402;280.65;NaN;;4.9;25.806452;307.2;7 / 21;27547;2020-11-11 01:27:49:236
9.7707;10.5291;5.0392;-7.267;-6.566;-0.4994;11.6531;14.7607;1.557;-0.1566;0.0075;0.7878;0.0;-20.4;-51.0;0.3;189.52;43.45;101.39;0.0;997.53;53.723;44.23506;-76.49402;280.65;NaN;;4.9;25.806452;307.2;7 / 21;28047;2020-11-11 01:27:49:736
3.5817;5.6593;1.9004;-5.2019;-7.8931;2.6096;11.1251;17.8452;-2.3636;-0.3558;0.5675;-0.2439;0.0;-20.94;-51.48;-0.24;148.15;53.6;63.36;0.0;997.6;55.501;44.23506;-76.49402;280.65;NaN;;4.9;25.806452;307.2;7 / 21;28547;2020-11-11 01:27:50:236
4.1061;9.8635;1.9315;-7.4202;-6.3213;-1.0728;16.6116;17.6453;6.7633;1.4938;-1.3105;1.1207;0.0;-21.54;-51.42;0.12;187.19;40.14;98.23;0.0;997.65;56.535;44.23506;-76.49402;280.65;NaN;;4.9;25.806452;307.2;7 / 21;29047;2020-11-11 01:27:50:736
8.4348;15.1236;0.0162;-5.5536;-7.0071;4.0285;14.5486;14.0239;-9.3705;0.0804;1.1822;-0.4466;0.0;-21.36;-50.76;-0.36;152.35;45.6;54.04;0.0;997.56;55.343;44.23506;-76.49402;280.65;NaN;;4.9;25.806452;307.2;7 / 21;29547;2020-11-11 01:27:51:236
9.5193;10.261;6.5811;-7.2597;-6.5173;-0.9956;17.9618;11.1854;0.7365;-0.3835;-0.3137;1.0581;0.0;-21.3;-50.46;0.66;189.24;41.65;97.81;0.0;997.54;56.364;44.23506;-76.49402;280.65;NaN;;4.9;25.806452;307.2;7 / 21;30047;2020-11-11 01:27:51:736
11.6502;9.8875;-3.6039;-6.0109;-7.1485;2.9895;18.1352;18.1924;-8.5135;0.5907;-1.1047;0.1425;0.0;-21.36;-50.88;0.9;157.95;46.8;63.56;0.0;997.52;54.524;44.23506;-76.49402;280.65;NaN;;4.9;25.806452;307.2;7 / 21;30547;2020-11-11 01:27:52:236
11.5664;5.3768;0.2484;-7.8729;-5.8211;-0.5494;17.8926;16.9392;8.2965;0.1955;0.5806;0.4826;0.0;-21.6;-51.36;0.96;190.06;46.27;96.45;0.0;997.55;53.143;44.23506;-76.49402;280.65;NaN;;4.9;25.806452;307.2;7 / 21;31047;2020-11-11 01:27:52:736
4.7764;8.8819;2.7432;-5.3559;-7.1576;4.0315;14.8561;18.0099;-6.977;0.526;0.9108;-0.4045;0.0;-22.38;-50.94;1.02;150.07;46.88;53.03;0.0;997.64;57.822;44.23509;-76.494095;270.97;NaN;;4.57;19.35484;282.1;7 / 21;31547;2020-11-11 01:27:53:236
9.7276;10.4238;6.9115;-6.9697;-6.806;-1.1278;18.6582;12.8603;1.2421;0.2024;-0.4882;1.2216;0.0;-22.38;-51.3;1.68;194.09;43.95;99.19;0.0;997.37;51.511;44.23509;-76.49411;274.19;NaN;;4.68;19.35484;275.5;7 / 21;32047;2020-11-11 01:27:53:736
9.3589;11.0726;-2.8401;-5.7372;-7.2273;3.3196;17.2246;18.8003;-9.3943;0.7292;-0.881;-0.0868;0.0;-22.26;-52.8;1.98;156.2;47.48;59.95;0.0;997.48;56.464;44.235096;-76.49412;270.97;NaN;;2.84;22.580645;297.4;7 / 21;32547;2020-11-11 01:27:54:236
10.9607;6.5859;0.2556;-7.0939;-6.7088;-0.9156;16.3379;14.2691;-0.2198;-0.029;0.5965;0.4344;0.0;-22.56;-52.92;2.64;194.25;43.17;97.35;0.0;997.43;51.551;44.235096;-76.49412;270.97;NaN;;2.84;22.580645;297.4;7 / 21;33047;2020-11-11 01:27:54:736
12.062;11.5658;-6.5679;-5.5649;-7.5212;2.9382;12.9439;15.6896;-5.9938;-0.2642;-0.3491;0.1012;0.0;-22.5;-52.5;1.98;154.38;50.08;62.17;0.0;997.47;56.071;44.235104;-76.49414;270.97;NaN;;4.1;25.806452;284.3;7 / 21;33547;2020-11-11 01:27:55:236
9.6247;7.7111;-1.2671;-7.4938;-6.1979;-1.2646;19.6084;12.1134;1.6207;-0.0138;0.5662;-0.3832;0.0;-22.38;-52.44;2.1;202.01;48.59;104.97;0.0;997.36;52.592;44.235104;-76.49414;270.97;NaN;;4.1;25.806452;284.3;7 / 21;34047;2020-11-11 01:27:55:736
8.509;9.2865;-2.1769;-6.14;-6.7309;3.6283;16.2771;17.0278;-9.7629;0.7169;-0.8008;0.1811;0.0;-21.9;-50.94;0.9;156.48;43.34;59.42;0.0;997.42;56.649;44.235104;-76.49414;270.97;NaN;;4.1;25.806452;284.3;7 / 21;34547;2020-11-11 01:27:56:236
11.643;6.5619;1.6945;-7.5152;-6.2399;-0.8691;16.9795;13.5847;-0.3812;-0.2067;0.4594;0.6056;0.0;-22.32;-50.28;0.72;188.1;39.52;96.6;0.0;997.39;54.125;44.23512;-76.49416;267.74;NaN;;5.65;25.806452;299.5;7 / 21;35047;2020-11-11 01:27:56:736
9.9264;11.3623;-6.0986;-5.8118;-7.3404;2.9174;14.8236;15.4825;-5.0369;-0.2147;-0.0879;-0.0445;0.0;-22.14;-50.94;0.42;152.67;48.46;63.34;0.0;997.38;55.102;44.23512;-76.49416;267.74;NaN;;5.65;25.806452;299.5;7 / 21;35546;2020-11-11 01:27:57:235
10.0149;6.8923;-1.6478;-6.1934;-7.4727;-1.4038;14.3217;12.8566;1.0968;-0.0599;0.6463;-0.3683;0.0;-22.08;-51.18;0.66;199.12;49.64;102.77;0.0;997.38;53.999;44.23512;-76.49417;267.74;NaN;;4.82;25.806452;304.4;7 / 21;36047;2020-11-11 01:27:57:736
6.8522;8.2187;-3.7595;-5.7371;-7.0452;3.6907;16.8247;18.3476;-10.7709;-0.6413;-0.323;0.2269;0.0;-21.96;-51.18;1.32;152.95;50.53;64.53;0.0;997.28;52.747;44.235123;-76.494194;267.74;NaN;;4.86;25.806452;291.8;7 / 21;36547;2020-11-11 01:27:58:236
12.6988;5.4893;2.2547;-6.8965;-6.8649;-1.217;16.8325;14.0325;-0.6654;0.037;0.2908;0.5084;0.0;-20.22;-52.38;3.3;195.17;44.43;100.01;0.0;997.34;54.792;44.235123;-76.494194;267.74;NaN;;4.86;25.806452;291.8;7 / 21;37047;2020-11-11 01:27:58:736
11.6957;11.0415;-7.4346;-6.3487;-7.3149;1.5351;13.9623;14.4155;-3.6929;-0.2615;-0.5345;0.0642;0.0;-19.14;-53.16;3.42;175.78;48.24;76.41;0.0;997.4;54.809;44.235123;-76.494194;267.74;NaN;;4.86;25.806452;291.8;7 / 21;37547;2020-11-11 01:27:59:236
8.8992;7.4478;-1.406;-5.8491;-7.6176;-1.9826;14.5017;12.8435;2.5662;0.0666;0.4352;-0.4511;0.0;-18.9;-53.22;3.18;203.93;50.97;108.72;0.0;997.36;56.379;44.235126;-76.49421;264.52;NaN;;4.28;25.806452;304.3;7 / 21;38047;2020-11-11 01:27:59:736
8.3653;7.7446;-2.2871;-5.9732;-7.5646;1.808;7.424;11.8376;-5.8979;-0.624;-0.2202;0.2266;0.0;-18.96;-53.22;4.32;174.91;50.48;73.16;0.0;997.26;55.244;44.235126;-76.49421;264.52;NaN;;4.28;25.806452;304.3;7 / 21;38547;2020-11-11 01:28:00:236
8.9208;6.1166;-0.5537;-6.2234;-7.3937;-1.6648;11.9575;9.6413;3.0169;-0.1795;0.9622;-0.6229;0.0;-19.62;-52.62;5.58;207.11;48.93;104.98;0.0;997.19;54.72;44.235146;-76.494225;270.97;NaN;;4.82;22.580645;292.6;7 / 21;39047;2020-11-11 01:28:00:736
6.3518;6.6433;-2.3828;-6.7854;-6.9749;1.2165;13.1372;13.6182;-3.5993;0.1403;0.5891;-0.5465;0.0;-19.74;-52.5;5.7;207.84;48.93;104.98;0.0;997.46;54.262;44.235146;-76.494225;270.97;NaN;;4.82;22.580645;292.6;7 / 21;39547;2020-11-11 01:28:01:236
6.3518;6.6433;-2.3828;-6.7854;-6.9749;1.2165;13.1372;13.6182;-3.5993;0.1403;0.5891;-0.5465;0.0;-19.74;-52.5;5.7;207.84;48.93;104.98;0.0;997.46;54.262;44.235157;-76.49425;270.97;NaN;;5.72;22.580645;295.8;7 / 21;40047;2020-11-11 01:28:01:736
1.6137;3.8205;-1.4946;-6.1334;-7.6;0.8896;7.7471;11.4206;-2.3842;-0.8112;-0.0445;0.2101;0.0;-22.14;-49.14;-0.6;163.72;50.8;81.75;0.0;997.48;52.864;44.23517;-76.49427;274.19;NaN;;5.26;22.580645;298.4;7 / 21;40547;2020-11-11 01:28:02:236
5.0661;6.0328;1.7065;-6.741;-7.0579;-0.9561;11.8072;13.0907;2.6626;-0.016;1.3366;0.0581;0.0;-22.68;-49.5;-3.78;177.57;46.03;98.07;0.0;997.42;54.028;44.23517;-76.49427;274.19;NaN;;5.26;22.580645;298.4;7 / 21;41047;2020-11-11 01:28:02:736
1.6328;4.2228;-0.5297;-7.5267;-6.2723;-0.4205;14.604;10.768;4.0016;-0.5127;-1.3582;-0.9476;0.0;-23.94;-49.5;-5.76;168.13;39.76;93.2;0.0;997.08;51.196;44.235172;-76.49428;274.19;NaN;;4.1;22.580645;301.7;7 / 21;41547;2020-11-11 01:28:03:236
4.9177;5.0105;1.57;-6.5415;-7.2923;-0.4474;11.2318;13.282;3.3845;-0.4139;1.0959;0.5609;0.0;-24.78;-49.32;-8.82;152.14;48.04;93.91;0.0;997.17;51.739;44.235172;-76.49428;274.19;NaN;;4.1;22.580645;301.7;7 / 21;42047;2020-11-11 01:28:03:736
6.8067;5.767;1.2564;-7.1451;-6.7156;-0.133;13.9518;12.4827;1.3894;0.1222;-0.3941;0.0692;0.0;-24.66;-48.84;-9.48;167.39;39.89;99.7;0.0;997.36;48.833;44.23518;-76.4943;274.19;NaN;;4.32;22.580645;300.0;7 / 21;42547;2020-11-11 01:28:04:236
6.8474;8.9513;-0.003;-6.2283;-7.5493;-0.6216;13.0757;16.5006;0.6186;0.0543;1.6631;0.5665;0.0;-24.0;-48.24;-6.42;163.08;50.34;95.7;0.0;997.32;53.939;44.23518;-76.4943;274.19;NaN;;4.32;22.580645;300.0;7 / 21;43047;2020-11-11 01:28:04:736
6.189;9.8635;0.6722;-7.095;-6.7557;-0.4388;13.284;16.6192;1.111;0.4759;-1.5819;-0.7167;0.0;-22.2;-49.08;-1.86;178.2;43.54;93.54;0.0;997.55;50.754;44.23518;-76.4943;274.19;NaN;;4.32;22.580645;300.0;7 / 21;43547;2020-11-11 01:28:05:236
3.5075;5.2259;0.6458;-5.8533;-7.8115;0.943;9.5212;13.4924;2.4178;-1.0072;1.4474;0.314;0.0;-20.94;-49.26;-0.72;161.89;52.8;80.85;0.0;997.46;52.51;44.235176;-76.49432;270.97;NaN;;3.56;25.806452;290.3;7 / 21;44047;2020-11-11 01:28:05:736
9.3829;6.2722;-1.2073;-7.429;-5.9656;-2.3218;15.1647;14.6009;7.9643;0.9926;-0.7902;0.579;0.0;-21.18;-49.14;-0.96;191.32;37.47;107.36;0.0;997.58;50.654;44.235176;-76.49432;270.97;NaN;;3.56;25.806452;290.3;7 / 21;44547;2020-11-11 01:28:06:236
3.2657;5.3457;3.4279;-6.2276;-7.5742;-0.1343;9.4933;12.9199;3.5622;0.4152;0.7984;-0.2474;0.0;-21.96;-49.14;-1.98;163.1;42.18;77.43;0.0;997.66;52.511;44.235184;-76.49433;267.74;NaN;;2.2;29.032257;290.3;7 / 21;45047;2020-11-11 01:28:06:736
4.944;10.4381;3.4159;-8.633;-4.6444;-0.2661;13.577;15.0825;3.6821;-1.0693;-3.0573;-0.196;0.0;-23.52;-49.32;-0.06;181.33;28.27;91.77;0.0;997.38;51.805;44.23519;-76.49434;264.52;NaN;;2.3;29.032257;290.3;7 / 21;45547;2020-11-11 01:28:07:236
6.5745;5.19;1.9579;-6.3748;-5.522;5.0039;12.9493;10.7121;-3.046;-3.9724;-2.9646;-0.5515;0.0;-24.3;-49.56;-0.54;153.31;34.27;51.87;0.0;997.44;50.048;44.23519;-76.49434;264.52;NaN;;2.3;29.032257;290.3;7 / 21;46047;2020-11-11 01:28:07:736
10.0987;5.1757;2.5516;-7.7766;-5.7756;-1.5286;17.8754;10.9512;4.0803;-1.1039;-0.8445;0.0053;0.0;-30.12;-44.1;-9.18;150.41;42.52;94.41;0.0;997.51;45.908;44.23519;-76.49434;264.52;NaN;;2.3;29.032257;290.3;7 / 21;46547;2020-11-11 01:28:08:236
6.3087;6.8827;-1.6047;-7.0413;-6.6664;1.4661;13.35;13.5491;-3.0708;-0.5752;-0.7105;-0.0591;0.0;-42.3;-31.14;-15.66;82.94;42.83;78.24;0.0;997.37;50.862;44.23519;-76.494354;264.52;NaN;;1.73;29.032257;290.3;7 / 21;47047;2020-11-11 01:28:08:736
4.6974;3.1382;1.2827;-6.9007;-6.8389;-1.3341;11.5981;9.9771;2.6168;-0.131;0.9316;-0.5446;0.0;-47.88;-26.46;-3.18;337.14;44.22;100.94;0.0;997.39;52.95;44.23519;-76.494354;264.52;NaN;;1.73;29.032257;290.3;7 / 21;47547;2020-11-11 01:28:09:236
3.2106;2.0512;1.503;-6.7686;-7.0065;1.1248;9.9792;9.0578;0.3782;-0.4144;-0.8466;-0.0764;0.0;-50.04;-26.1;-0.6;28.47;45.6;80.57;0.0;997.44;50.214;44.23519;-76.494354;264.52;NaN;;1.73;29.032257;290.3;7 / 22;48046;2020-11-11 01:28:09:735
7.7979;4.6442;-0.0964;-5.8691;-7.6249;-1.8931;8.0598;13.2028;2.2301;-0.1342;1.5649;0.1731;0.0;-50.04;-24.3;-1.62;329.01;51.03;107.88;0.0;997.15;56.257;44.23519;-76.494354;264.52;NaN;;1.73;29.032257;290.3;7 / 22;48547;2020-11-11 01:28:10:236
-1.6783;2.6187;-1.5999;-7.0294;-6.8082;0.6375;15.9861;10.7532;-1.0451;-1.0714;-2.191;-0.3435;0.0;-48.78;-22.86;-1.56;20.46;43.97;84.82;0.0;997.56;52.572;44.235195;-76.49434;264.52;NaN;;1.98;32.258064;290.3;7 / 22;49047;2020-11-11 01:28:10:736
4.379;3.4423;1.6586;-6.9817;-6.8358;-0.835;11.3607;10.2781;2.4936;0.0093;1.6733;0.428;0.0;-48.9;-22.8;-1.14;5.8;51.55;88.31;0.0;997.49;53.236;44.235195;-76.49434;264.52;NaN;;1.98;32.258064;290.3;7 / 22;49547;2020-11-11 01:28:11:236
3.2729;2.068;2.2212;-7.406;-6.2334;1.57;10.6789;8.3014;0.6512;-0.6517;-1.355;-0.1744;0.0;-48.96;-23.64;1.08;37.26;39.47;78.03;0.0;997.38;54.509;44.235188;-76.49432;264.52;NaN;;3.53;35.48387;123.8;7 / 22;50047;2020-11-11 01:28:11:736
1.5131;5.6952;0.3226;-6.7503;-7.0964;-0.4938;8.2635;12.7916;0.8164;0.0668;1.9295;0.4216;0.0;-48.42;-24.48;0.72;359.72;47.11;88.91;0.0;997.28;55.389;44.235188;-76.49432;264.52;NaN;;3.53;35.48387;123.8;7 / 22;50547;2020-11-11 01:28:12:236
-1.0894;3.1143;-2.8425;-7.6267;-6.1072;0.8403;15.5491;9.6715;-1.0013;-0.9055;-1.3665;-0.0567;0.0;-48.48;-26.04;1.32;24.31;38.52;83.71;0.0;997.36;53.141;44.235172;-76.494286;258.06;NaN;;4.54;35.48387;119.2;7 / 22;51047;2020-11-11 01:28:12:736
5.3415;2.7336;1.4192;-7.3706;-6.4293;-0.7136;12.712;9.1628;2.1328;0.404;1.7103;0.2304;0.0;-49.44;-26.58;0.9;9.96;48.04;85.07;0.0;997.44;54.07;44.235172;-76.494286;258.06;NaN;;4.54;35.48387;119.2;7 / 22;51611;2020-11-11 01:28:13:300
2.2098;1.3617;1.9674;-6.8449;-6.7071;2.0817;9.0547;8.0688;-0.1143;-0.8639;-2.0272;-0.2844;0.0;-49.5;-26.22;1.8;12.47;39.27;84.85;0.0;997.31;54.801;44.235172;-76.494286;258.06;NaN;;4.54;35.48387;119.2;7 / 22;52047;2020-11-11 01:28:13:736
1.9297;5.2643;0.8877;-6.525;-7.1047;-1.7655;8.4548;12.3689;2.6532;0.3571;2.2717;0.6011;0.0;-49.32;-26.76;0.96;354.92;50.33;90.96;0.0;997.38;57.054;44.235172;-76.494286;258.06;NaN;;4.54;35.48387;119.2;7 / 22;52547;2020-11-11 01:28:14:236
7.367;2.9515;0.835;-7.0439;-6.8226;0.0745;14.4108;9.7741;0.7605;0.5103;-1.5777;-0.7491;0.0;-49.2;-26.88;-0.24;333.36;46.55;99.72;0.0;997.31;55.526;44.23516;-76.49427;245.16;NaN;;4.32;38.709675;119.9;7 / 22;53047;2020-11-11 01:28:14:736
4.0486;5.8413;-2.1123;-6.0417;-7.646;-1.0983;10.0903;13.4873;-1.014;-0.7665;1.0932;0.3696;0.0;-49.5;-24.96;-3.66;19.88;50.47;85.56;0.0;997.58;55.284;44.23516;-76.49427;245.16;NaN;;4.32;38.709675;119.9;7 / 22;53547;2020-11-11 01:28:15:236
-0.5842;1.74;-1.1259;-7.6393;-6.1304;0.4793;16.0908;10.6908;-1.7967;-0.7486;-1.9004;-0.2208;0.0;-49.92;-23.22;-3.96;28.56;38.69;86.41;0.0;997.3;54.796;44.23516;-76.49426;248.39;NaN;;5.08;35.48387;130.7;7 / 22;54047;2020-11-11 01:28:15:736
4.051;4.388;1.4886;-6.3626;-7.4615;0.1186;13.8804;15.9938;2.7826;0.179;2.0157;0.4373;0.0;-50.82;-22.08;-2.88;9.17;49.54;88.93;0.0;997.36;52.694;44.23516;-76.49426;248.39;NaN;;5.08;35.48387;130.7;7 / 22;54547;2020-11-11 01:28:16:236
4.1779;2.2523;2.2452;-6.7273;-6.9404;1.6569;10.9052;9.1927;0.5883;-0.3651;-1.8421;-0.58;0.0;-51.3;-21.42;-1.2;2.02;46.99;90.21;0.0;997.62;53.279;44.23516;-76.49426;248.39;NaN;;5.08;35.48387;130.7;7 / 22;55047;2020-11-11 01:28:16:736
1.9585;5.7311;0.2676;-6.3066;-7.4924;-0.5097;8.2651;13.2236;0.7773;0.1465;1.987;0.371;0.0;-50.52;-21.0;-2.64;28.25;50.68;78.22;0.0;997.59;53.072;44.23516;-76.49426;248.39;NaN;;5.08;35.48387;130.7;7 / 22;55547;2020-11-11 01:28:17:236
9.4571;5.0296;-0.5273;-7.1337;-6.6537;1.0048;16.5908;11.6833;-1.5321;1.4485;-0.8762;-0.6735;0.0;-50.22;-22.14;-1.32;356.85;41.48;92.2;0.0;997.31;53.18;44.235153;-76.49423;251.61;NaN;;4.21;38.709675;121.6;7 / 22;56047;2020-11-11 01:28:17:736
3.4141;6.4063;2.0895;-6.4283;-6.8284;2.8671;14.1209;19.6894;-2.578;0.3537;0.2687;-0.2551;0.0;-50.16;-22.98;-1.98;56.44;44.13;65.96;0.0;997.44;50.127;44.235153;-76.49423;251.61;NaN;;4.21;38.709675;121.6;7 / 22;56547;2020-11-11 01:28:18:236
9.9814;6.5667;-2.1458;-6.8932;-6.9625;-0.4213;13.3599;19.4477;-0.3095;1.3931;-0.4482;-0.5294;0.0;-49.62;-22.92;0.54;348.09;45.23;93.5;0.0;997.41;50.115;44.235153;-76.49421;251.61;NaN;;4.14;38.709675;109.3;7 / 22;57047;2020-11-11 01:28:18:736
3.881;7.3065;1.807;-6.3655;-7.2762;1.6453;11.3191;15.8708;-0.7265;-0.5579;1.5217;-0.0455;0.0;-49.26;-23.52;-1.2;34.96;47.9;75.51;0.0;997.59;51.043;44.235153;-76.49421;251.61;NaN;;4.14;38.709675;109.3;7 / 22;57547;2020-11-11 01:28:19:236
4.288;10.7518;-0.1754;-7.4702;-6.2523;1.129;16.6927;14.1047;-3.2748;0.6674;-1.134;0.9886;0.0;-49.2;-24.72;-0.6;358.07;33.72;91.42;0.0;997.81;50.876;44.235157;-76.4942;248.39;NaN;;4.43;41.935486;115.0;7 / 22;58047;2020-11-11 01:28:19:736
8.7963;12.6599;2.4487;-6.5978;-6.5184;3.1858;8.4366;11.2727;-1.896;-1.726;0.9659;0.0229;0.0;-48.84;-25.5;-1.98;66.45;41.66;64.23;0.0;997.3;53.604;44.235157;-76.4942;248.39;NaN;;4.43;41.935486;115.0;7 / 22;58549;2020-11-11 01:28:20:238
7.1922;11.6304;0.0425;-7.9924;-5.6823;-0.0646;14.3969;13.9081;1.8789;0.0629;-0.7265;0.2309;0.0;-49.14;-24.24;0.78;351.01;35.41;90.46;0.0;997.55;51.761;44.23516;-76.494194;248.39;NaN;;2.09;45.16129;115.0;7 / 22;59047;2020-11-11 01:28:20:736
3.0478;7.2586;1.6179;-7.0817;-6.1748;2.8092;15.2387;21.4755;-1.7205;0.3462;0.323;-0.1073;0.0;-49.5;-23.52;1.14;59.08;39.02;68.36;0.0;997.61;52.491;44.23516;-76.494194;248.39;NaN;;2.09;45.16129;115.0;7 / 22;59547;2020-11-11 01:28:21:236
6.0789;11.0582;-4.0683;-7.3704;-6.4659;-0.1983;14.8068;19.9757;2.3812;2.4882;-0.0951;0.902;0.0;-49.74;-22.26;-1.2;358.8;41.25;91.54;0.0;997.45;54.421;44.235153;-76.49418;248.39;NaN;;2.59;45.16129;115.0;7 / 22;60047;2020-11-11 01:28:21:736
7.1012;7.3424;5.8125;-6.4017;-7.3084;1.3324;12.1693;14.2797;1.1594;1.575;0.9057;-0.6735;0.0;-47.7;-24.18;-7.74;87.49;32.44;64.8;0.0;997.74;53.946;44.235153;-76.49418;248.39;NaN;;2.59;45.16129;115.0;7 / 22;60547;2020-11-11 01:28:22:236
8.1499;5.961;-2.1314;-7.0877;-6.549;1.7453;12.3956;17.9759;-2.3756;0.8487;-0.5212;-0.2091;0.0;-42.42;-31.8;-13.8;87.14;41.9;76.17;0.0;997.6;56.981;44.235157;-76.49417;245.16;NaN;;0.97;41.935486;115.0;7 / 22;61047;2020-11-11 01:28:22:736
3.0813;5.7766;0.7775;-5.3922;-7.9581;1.9399;10.3889;17.7043;-2.2781;-0.7523;0.1891;-0.2485;0.0;-39.66;-36.48;-14.22;78.04;54.24;70.21;0.0;997.74;53.166;44.235157;-76.49417;245.16;NaN;;0.97;41.935486;115.0;7 / 22;61547;2020-11-11 01:28:23:236
6.3853;7.9075;3.55;-7.4348;-6.1089;-1.8905;18.2279;14.6652;3.336;0.8818;-1.1587;1.2615;0.0;-40.32;-38.16;-11.16;168.33;38.53;104.27;0.0;997.49;57.707;44.235157;-76.49417;245.16;NaN;;0.97;41.935486;115.0;7 / 22;62047;2020-11-11 01:28:23:736
9.9335;11.1205;-2.1195;-7.1098;-6.3387;2.3327;17.0553;14.8567;-11.6013;0.0333;-0.4911;0.0594;0.0;-41.7;-35.7;-12.0;99.48;40.27;71.84;0.0;997.77;51.744;44.235157;-76.49417;245.16;NaN;;0.97;41.935486;115.0;7 / 22;62547;2020-11-11 01:28:24:236
10.4914;4.8285;-0.501;-7.2876;-6.4595;-1.1555;16.9674;12.5067;-0.0685;0.1353;0.4983;0.2676;0.0;-43.86;-31.56;-10.5;28.16;41.2;99.01;0.0;997.67;54.389;44.235157;-76.49417;245.16;NaN;;0.97;41.935486;115.0;7 / 22;63046;2020-11-11 01:28:24:735
13.4315;11.7597;-8.1936;-5.8212;-7.5819;2.1907;15.8337;17.4957;-3.975;-0.8509;-0.5963;0.187;0.0;-45.18;-29.58;-10.44;61.82;48.29;76.31;0.0;997.76;53.775;44.235157;-76.49417;245.16;NaN;;0.97;41.935486;115.0;7 / 22;63547;2020-11-11 01:28:25:236
11.643;5.7646;-0.5824;-7.6139;-6.103;-0.9754;17.2386;10.1941;1.2166;0.1071;0.7358;0.6527;0.0;-45.54;-29.28;-8.58;25.69;38.49;97.3;0.0;997.73;57.575;44.235157;-76.49417;245.16;NaN;;0.97;41.935486;115.0;7 / 22;64047;2020-11-11 01:28:25:736
12.8401;11.4988;-7.0228;-7.0733;-6.6191;1.5248;12.0269;12.2281;-5.7177;-0.4863;-0.4711;0.2764;0.0;-44.94;-28.86;-10.98;71.61;42.45;77.83;0.0;997.34;53.596;44.235157;-76.49417;245.16;NaN;;0.97;41.935486;115.0;7 / 22;64547;2020-11-11 01:28:26:236
9.3374;5.8341;-1.6837;-6.5921;-7.0039;-1.9129;15.4339;12.0455;1.3999;0.159;0.4727;-0.5025;0.0;-45.12;-29.22;-11.64;355.52;45.58;106.18;0.0;997.46;51.78;44.235157;-76.49417;245.16;NaN;;0.97;41.935486;115.0;7 / 22;65047;2020-11-11 01:28:26:736
4.7621;5.4199;-1.4084;-7.8519;-5.6499;1.6114;8.5031;7.8831;-4.2719;-1.0807;-0.5846;0.428;0.0;-44.16;-29.58;-11.4;92.81;35.18;78.4;0.0;997.69;55.897;44.235157;-76.49417;245.16;NaN;;0.97;41.935486;115.0;7 / 22;65547;2020-11-11 01:28:27:236
7.5561;5.9107;1.3258;-7.8435;-5.7184;-1.3962;12.8426;8.2891;2.8968;-0.3763;0.6562;-0.7491;0.0;-44.22;-29.46;-7.92;3.75;35.67;100.09;0.0;997.56;55.227;44.235157;-76.49417;245.16;NaN;;0.97;41.935486;115.0;7 / 22;66047;2020-11-11 01:28:27:736
2.4062;4.1581;-2.8329;-7.3458;-5.6714;3.1692;14.5332;13.4999;-5.7268;-1.0639;-1.045;0.2884;0.0;-46.8;-29.04;-4.2;102.0;29.49;67.91;0.0;997.65;54.126;44.235157;-76.49417;245.16;NaN;;0.97;41.935486;115.0;7 / 22;66547;2020-11-11 01:28:28:236
8.1403;5.8101;-0.8386;-7.7136;-6.0501;0.2596;15.3439;9.5546;-0.6864;-0.3292;0.6509;-0.3925;0.0;-46.92;-27.12;1.8;356.92;38.09;88.07;0.0;997.51;53.574;44.235157;-76.49417;245.16;NaN;;0.97;41.935486;115.0;7 / 22;67047;2020-11-11 01:28:28:736
3.4237;5.9155;-4.0229;-6.5298;-6.4832;3.3911;6.537;8.0939;-6.327;-0.9031;-0.2554;0.1012;0.0;-47.46;-24.84;2.16;64.64;41.38;62.56;0.0;997.54;50.661;44.235157;-76.49417;245.16;NaN;;0.97;41.935486;115.0;7 / 22;67548;2020-11-11 01:28:29:237
5.4971;3.04;0.7225;-6.4516;-7.3747;-0.4006;10.9742;11.8489;0.6203;-0.53;1.0309;-0.2021;0.0;-47.94;-24.54;2.82;342.91;48.77;93.55;0.0;997.48;55.139;44.235157;-76.49417;245.16;NaN;;0.97;41.935486;115.0;7 / 22;68047;2020-11-11 01:28:29:736
-0.7661;2.4894;0.8446;-7.54;-6.2606;0.3518;13.8247;11.2783;1.5103;-0.9041;-2.1106;-0.2716;0.0;-47.82;-26.1;3.72;350.68;39.67;87.33;0.0;997.43;50.067;44.23517;-76.49403;245.16;NaN;;1.8;35.48387;82.6;7 / 22;68547;2020-11-11 01:28:30:236
3.553;6.2387;0.2867;-6.8486;-6.9224;-1.1605;12.2738;9.2418;1.835;0.2333;1.6498;0.5321;0.0;-48.0;-26.16;2.94;347.39;47.33;91.12;0.0;997.96;55.674;44.23517;-76.49403;245.16;NaN;;1.8;35.48387;82.6;7 / 21;69047;2020-11-11 01:28:30:736
0.996;4.0839;-2.718;-6.9962;-6.7462;1.3088;9.23;10.6386;0.8622;-1.0772;-1.4059;-0.1137;0.0;-48.12;-25.5;4.8;14.67;43.47;79.4;0.0;997.51;51.524;44.23517;-76.49403;245.16;NaN;;1.8;35.48387;82.6;7 / 21;69547;2020-11-11 01:28:31:236
5.3295;2.7479;0.9595;-6.8997;-6.9135;0.8767;10.309;13.9446;-1.5166;0.8924;1.5593;0.1611;0.0;-47.52;-26.82;5.4;4.2;44.83;82.76;0.0;997.34;54.679;44.23516;-76.49403;241.94;NaN;;1.62;38.709675;82.6;7 / 21;70048;2020-11-11 01:28:31:737
6.4572;2.9179;1.072;-7.2213;-6.634;-0.1161;18.0886;13.8016;-0.9284;0.6911;-1.4693;-0.7939;0.0;-46.98;-27.42;7.44;326.75;42.57;90.92;0.0;997.41;51.928;44.23516;-76.49403;241.94;NaN;;1.62;38.709675;82.6;7 / 21;70547;2020-11-11 01:28:32:236
5.0781;5.8843;-1.7795;-6.2811;-7.521;-0.3909;12.2809;15.1579;1.9442;-0.2016;1.4253;0.3593;0.0;-47.46;-26.04;4.14;340.11;50.08;93.56;0.0;997.5;54.896;44.235153;-76.494026;241.94;NaN;;2.09;41.935486;82.6;7 / 20;71047;2020-11-11 01:28:32:736
10.6087;6.5571;-1.0301;-7.6934;-6.0805;-0.099;11.7707;17.7684;1.3697;0.5875;-1.4267;-0.8269;0.0;-48.06;-26.1;2.76;338.82;38.32;90.74;0.0;997.6;56.255;44.235153;-76.494026;241.94;NaN;;2.09;41.935486;82.6;7 / 20;71547;2020-11-11 01:28:33:236
3.79;5.9705;2.4199;-6.3791;-7.447;-0.1397;13.3199;15.5843;-3.6797;-0.6152;0.4807;0.22;0.0;-48.6;-26.64;2.04;19.89;47.53;80.19;0.0;997.53;55.207;44.23514;-76.494026;238.71;NaN;;3.13;41.935486;82.6;7 / 20;72047;2020-11-11 01:28:33:736
7.2999;3.0592;1.5796;-7.3126;-6.4826;0.8196;17.2725;13.916;-2.4818;0.0812;-1.4197;-0.6956;0.0;-48.42;-27.72;4.32;7.23;41.38;83.6;0.0;997.28;54.506;44.23514;-76.494026;238.71;NaN;;3.13;41.935486;82.6;7 / 20;72547;2020-11-11 01:28:34:236
11.0085;9.5906;0.3537;-5.0947;-8.1711;1.8567;7.0029;14.0411;-0.5261;-1.2408;0.5731;0.0431;0.0;-47.58;-27.12;3.0;30.09;56.43;69.98;0.0;997.67;53.425;44.235126;-76.49402;238.71;NaN;;3.6;41.935486;172.0;7 / 20;73047;2020-11-11 01:28:34:736
10.082;9.4613;-2.5504;-7.1247;-6.6475;-1.1042;8.9491;16.8222;2.758;0.3949;-0.7838;0.265;0.0;-46.38;-26.46;2.1;321.86;42.68;98.81;0.0;997.59;53.854;44.235126;-76.49402;238.71;NaN;;3.6;41.935486;172.0;7 / 20;73547;2020-11-11 01:28:35:236
2.1524;6.7606;1.1582;-6.1653;-7.625;0.1334;12.4693;24.6209;-1.9608;0.0655;0.6386;-0.5049;0.0;-45.84;-26.46;-5.52;19.91;51.04;88.76;0.0;997.66;56.088;44.23512;-76.49403;235.48;NaN;;3.35;41.935486;184.5;7 / 19;74047;2020-11-11 01:28:35:736
0.7039;10.9146;3.4423;-6.1342;-7.6498;-0.1498;15.2393;17.3888;2.3136;1.2421;-0.1531;1.4637;0.0;-45.42;-24.36;-9.36;21.31;51.27;91.4;0.0;997.63;58.556;44.23512;-76.49403;235.48;NaN;;3.35;41.935486;184.5;7 / 19;74548;2020-11-11 01:28:36:237
5.9592;11.4485;-0.6997;-7.2993;-5.94;2.7579;13.9073;10.2179;-3.9364;1.0642;-0.4964;0.7007;0.0;-46.68;-22.44;-10.98;74.63;42.74;62.43;0.0;997.6;57.209;44.235107;-76.494026;238.71;NaN;;4.1;41.935486;180.5;7 / 19;75047;2020-11-11 01:28:36:736
0.9026;9.5116;-1.1905;-4.5459;-8.5438;-1.5841;6.1763;22.2859;6.3096;0.7481;-0.4099;-1.5279;0.0;-49.98;-21.0;-5.46;340.02;60.6;109.21;0.0;997.58;54.932;44.235107;-76.494026;238.71;NaN;;4.1;41.935486;180.5;7 / 19;75547;2020-11-11 01:28:37:236
-1.6712;7.2012;4.6849;-1.5516;-9.6724;0.4547;0.9219;25.0929;3.0474;1.4725;-0.5539;-0.5779;0.0;-44.28;-28.44;-7.26;28.55;80.51;73.67;0.0;997.51;55.428;44.235096;-76.494026;241.94;NaN;;3.38;41.935486;171.1;7 / 19;76047;2020-11-11 01:28:37:736
-11.0492;9.6935;3.9594;6.1066;-7.6553;-0.5252;-12.1927;19.9896;1.59;0.1182;-1.8328;-0.7449;0.0;-23.1;-43.32;-6.24;190.16;51.32;-94.92;3.1;997.53;54.04;44.235096;-76.494026;241.94;NaN;;3.38;41.935486;171.1;7 / 19;76547;2020-11-11 01:28:38:236
-3.6919;5.1828;11.2545;2.8179;-4.4154;-8.2906;-7.2017;8.473;17.6609;-0.2732;-0.2277;0.5135;0.0;7.02;-47.64;-10.98;175.25;26.76;-161.23;3.1;997.58;58.699;44.235096;-76.494026;241.94;NaN;;3.38;41.935486;171.1;7 / 19;77047;2020-11-11 01:28:38:736
-2.6001;2.6306;12.9688;2.1143;-2.3651;-9.2794;-6.0049;7.1026;22.1524;-0.5768;0.5609;0.6184;0.0;11.16;-39.6;-30.3;171.59;14.6;-168.04;3.1;997.62;40.51;44.235096;-76.494026;241.94;NaN;;3.38;41.935486;171.1;7 / 19;77547;2020-11-11 01:28:39:236
0.9313;3.8397;13.4021;0.4219;-2.5836;-9.4508;-1.947;5.7672;23.4467;0.4389;-0.3156;-0.436;0.0;-3.42;-29.58;-44.4;195.91;15.27;-177.44;3.1;997.56;59.491;44.235085;-76.494;241.94;NaN;;1.98;41.935486;171.1;7 / 19;78047;2020-11-11 01:28:39:736
-0.9984;4.5843;12.4157;0.8102;-2.7139;-9.3887;-1.799;6.7811;20.9114;-0.0493;0.0317;0.3555;0.0;-8.64;-25.26;-46.26;228.2;16.07;-175.07;3.1;997.54;34.808;44.235085;-76.494;241.94;NaN;;1.98;41.935486;171.1;7 / 19;78547;2020-11-11 01:28:40:236
-0.4118;2.973;8.8747;-0.0282;-2.3306;-9.5256;-0.3793;5.2396;18.4157;-0.0676;-0.2466;-0.4075;0.0;-12.0;-25.38;-45.6;221.31;12.33;-178.91;3.1;997.56;27.913;44.235085;-76.494;241.94;NaN;;1.98;41.935486;171.1;7 / 19;79047;2020-11-11 01:28:40:736
-0.6584;3.6577;12.6001;0.3204;-2.4849;-9.4812;-0.5374;4.9385;16.7426;0.086;0.0762;-0.0418;0.0;-13.62;-26.28;-45.12;228.19;14.68;-178.06;3.1;997.54;30.432;44.235085;-76.494;241.94;NaN;;1.98;41.935486;171.1;7 / 19;79550;2020-11-11 01:28:41:239
-0.4908;2.8772;10.2945;0.6275;-2.2639;-9.5211;-0.5461;2.8043;16.2417;0.2541;0.0916;0.0538;0.0;-13.62;-27.06;-45.12;226.41;13.35;-176.23;3.1;997.6;38.098;44.235077;-76.493996;235.48;NaN;;2.48;41.935486;171.1;7 / 19;80047;2020-11-11 01:28:41:736
-0.5243;2.4918;8.1493;-0.2193;-2.2091;-9.5521;-0.526;4.6874;17.7069;-0.1393;0.3569;-0.2482;0.0;-12.66;-27.96;-45.0;215.01;13.02;178.68;3.1;997.57;54.997;44.235077;-76.493996;235.48;NaN;;2.48;41.935486;171.1;7 / 19;80547;2020-11-11 01:28:42:236
0.6512;2.0321;6.174;0.673;-2.3576;-9.4952;0.3931;4.538;15.6516;-0.1385;-0.2181;-0.2021;0.0;-11.64;-28.74;-44.7;220.79;13.91;-175.95;3.1;997.56;51.625;44.23507;-76.49398;238.71;NaN;;2.05;41.935486;171.1;7 / 19;81048;2020-11-11 01:28:42:737
-1.0774;2.5301;6.344;-0.2232;-2.4998;-9.48;-1.2385;5.3078;15.7476;-0.1244;0.1438;0.0631;0.0;-10.32;-29.4;-44.16;208.12;14.77;178.65;3.1;997.56;31.859;44.23507;-76.49398;238.71;NaN;;2.05;41.935486;171.1;7 / 19;81547;2020-11-11 01:28:43:236
-1.47;1.7855;9.3176;1.2791;-1.9;-9.5354;-2.5706;4.2052;18.7571;-0.8219;0.6796;0.1704;0.0;-9.78;-31.74;-43.32;223.14;20.07;-173.52;3.1;997.54;10.249;44.23507;-76.49398;238.71;NaN;;2.05;41.935486;171.1;7 / 19;82047;2020-11-11 01:28:43:736
-0.237;2.8006;6.4446;0.8788;-2.1158;-9.5352;-1.1374;4.1886;17.2895;0.1414;-0.1457;-0.021;0.0;-9.24;-32.22;-43.14;210.19;12.46;-174.73;3.1;997.56;10.249;44.23507;-76.49398;238.71;NaN;;2.05;41.935486;171.1;7 / 19;82546;2020-11-11 01:28:44:235
-0.237;2.8006;6.4446;0.8788;-2.1158;-9.5352;-1.1374;4.1886;17.2895;0.1414;-0.1457;-0.021;0.0;-9.24;-32.22;-43.14;210.19;12.46;-174.73;3.1;997.56;10.249;44.23507;-76.49398;238.71;NaN;;2.05;41.935486;171.1;7 / 19;83047;2020-11-11 01:28:44:736
0.3591;2.4343;13.1364;-0.0165;-2.2887;-9.5358;0.7251;3.8108;19.7393;0.1012;-0.1571;-0.2895;0.0;-9.84;-27.18;-46.62;225.73;18.63;-178.89;3.1;997.61;19.78;44.235058;-76.49397;235.48;NaN;;2.2;38.709675;197.6;7 / 19;83548;2020-11-11 01:28:45:237
-0.3807;1.9866;14.5729;0.4987;-1.7059;-9.6442;-0.8794;3.6925;24.2171;0.6759;0.2487;0.4091;0.0;-11.34;-28.08;-46.92;214.51;10.02;-177.04;3.1;997.57;14.654;44.235058;-76.493965;238.71;NaN;;1.76;38.709675;197.6;7 / 19;84047;2020-11-11 01:28:45:736
1.4174;6.2219;11.2426;-0.9683;-4.4165;-8.7021;2.3856;10.6385;19.9447;0.025;-0.7606;-0.3486;0.0;-11.4;-28.68;-46.56;233.09;26.77;173.65;3.1;997.57;17.369;44.235058;-76.493965;238.71;NaN;;1.76;38.709675;197.6;7 / 19;84547;2020-11-11 01:28:46:236
-0.565;4.9817;12.624;0.7547;-4.7267;-8.5591;-2.014;11.1306;19.3013;0.3965;0.7089;0.0823;0.0;-13.26;-31.68;-43.44;244.6;28.82;-174.96;3.1;997.56;20.897;44.23505;-76.49396;241.94;NaN;;0.0;38.709675;;7 / 19;85047;2020-11-11 01:28:46:736
-0.2562;4.5316;12.9472;0.5152;-3.816;-9.019;-1.6165;7.773;16.3902;-0.7859;-1.0341;-0.3156;0.0;-12.3;-36.66;-40.14;217.17;22.9;-176.73;3.1;997.56;25.34;44.23505;-76.49396;241.94;NaN;;0.0;38.709675;;7 / 19;85547;2020-11-11 01:28:47:236
0.3926;5.4965;10.7326;-0.4705;-4.2703;-8.8155;0.8632;9.7668;19.5481;0.208;-0.0858;-0.0338;0.0;-8.76;-36.66;-41.7;199.56;22.24;176.55;3.1;997.6;16.142;44.23505;-76.49396;241.94;NaN;;0.0;38.709675;;7 / 19;86046;2020-11-11 01:28:47:735